workerid,proliferate.condition,audio,bias,first,form,image,lbr_after,lbr_before,nameCategory,region,response,response_correct,rt,slide_number,slide_type,trial_id,trial_no,type,word_idx,catch_trials,condition,subject_information.affiliation,subject_information.age,subject_information.comments,subject_information.education,subject_information.enjoyment,subject_information.fairprice,subject_information.gender,subject_information.language,subject_information.problems,subject_information.race,system.Browser,system.OS,system.screenH,system.screenW,time_in_minutes,error
244,pilot,,,,,Margaret,,,,,"[0, 'margaret']",,,1,bot_check,,,,,[],list1,-1,,,-1,-1,,,,,,Chrome,Mac,800,1280,1.4536166666666666,
244,pilot,,,Marquis,This,,,,,filler,,0,164,,,computer,0,practice,0,[],list1,-1,,,-1,-1,,,,,,Chrome,Mac,800,1280,1.4536166666666666,
244,pilot,,,Marquis,was,,,,,filler,,0,139,,,computer,0,practice,1,[],list1,-1,,,-1,-1,,,,,,Chrome,Mac,800,1280,1.4536166666666666,
244,pilot,,,Marquis,the,,,,,filler,,0,114,,,computer,0,practice,2,[],list1,-1,,,-1,-1,,,,,,Chrome,Mac,800,1280,1.4536166666666666,
244,pilot,,,Marquis,worst,,,,,filler,,0,143,,,computer,0,practice,3,[],list1,-1,,,-1,-1,,,,,,Chrome,Mac,800,1280,1.4536166666666666,
244,pilot,,,Marquis,time,,,,,filler,,0,123,,,computer,0,practice,4,[],list1,-1,,,-1,-1,,,,,,Chrome,Mac,800,1280,1.4536166666666666,
244,pilot,,,Marquis,for,,,,,filler,,0,140,,,computer,0,practice,5,[],list1,-1,,,-1,-1,,,,,,Chrome,Mac,800,1280,1.4536166666666666,
244,pilot,,,Marquis,it,,,,,filler,,0,148,,,computer,0,practice,6,[],list1,-1,,,-1,-1,,,,,,Chrome,Mac,800,1280,1.4536166666666666,
244,pilot,,,Marquis,to,,,,,filler,,0,139,,,computer,0,practice,7,[],list1,-1,,,-1,-1,,,,,,Chrome,Mac,800,1280,1.4536166666666666,
244,pilot,,,Marquis,break,,,,,filler,,0,148,,,computer,0,practice,8,[],list1,-1,,,-1,-1,,,,,,Chrome,Mac,800,1280,1.4536166666666666,
244,pilot,,,Marquis,"down,",,,,,filler,,0,141,,,computer,0,practice,9,[],list1,-1,,,-1,-1,,,,,,Chrome,Mac,800,1280,1.4536166666666666,
244,pilot,,,Marquis,as,,,,,filler,,0,138,,,computer,0,practice,10,[],list1,-1,,,-1,-1,,,,,,Chrome,Mac,800,1280,1.4536166666666666,
244,pilot,,,Marquis,David,,,,,name,,0,134,,,computer,0,practice,11,[],list1,-1,,,-1,-1,,,,,,Chrome,Mac,800,1280,1.4536166666666666,
244,pilot,,,Marquis,had,,,,,filler,,0,162,,,computer,0,practice,12,[],list1,-1,,,-1,-1,,,,,,Chrome,Mac,800,1280,1.4536166666666666,
244,pilot,,,Marquis,a,,,,,filler,,0,133,,,computer,0,practice,13,[],list1,-1,,,-1,-1,,,,,,Chrome,Mac,800,1280,1.4536166666666666,
244,pilot,,,Marquis,lot,,,,,filler,,0,147,,,computer,0,practice,14,[],list1,-1,,,-1,-1,,,,,,Chrome,Mac,800,1280,1.4536166666666666,
244,pilot,,,Marquis,of,,,,,filler,,0,150,,,computer,0,practice,15,[],list1,-1,,,-1,-1,,,,,,Chrome,Mac,800,1280,1.4536166666666666,
244,pilot,,,Marquis,work,,,,,filler,,0,155,,,computer,0,practice,16,[],list1,-1,,,-1,-1,,,,,,Chrome,Mac,800,1280,1.4536166666666666,
244,pilot,,,Marquis,to,,,,,filler,,0,149,,,computer,0,practice,17,[],list1,-1,,,-1,-1,,,,,,Chrome,Mac,800,1280,1.4536166666666666,
244,pilot,,,Marquis,do,,,,,filler,,0,149,,,computer,0,practice,18,[],list1,-1,,,-1,-1,,,,,,Chrome,Mac,800,1280,1.4536166666666666,
244,pilot,,,Marquis,the,,,,,filler,,0,139,,,computer,0,practice,19,[],list1,-1,,,-1,-1,,,,,,Chrome,Mac,800,1280,1.4536166666666666,
244,pilot,,,Marquis,next,,,,,filler,,0,148,,,computer,0,practice,20,[],list1,-1,,,-1,-1,,,,,,Chrome,Mac,800,1280,1.4536166666666666,
244,pilot,,,Marquis,day.,,,,,filler,,0,140,,,computer,0,practice,21,[],list1,-1,,,-1,-1,,,,,,Chrome,Mac,800,1280,1.4536166666666666,
244,pilot,,,Marquis,He,,,,,filler,,0,133,,,running,0,practice,0,[],list1,-1,,,-1,-1,,,,,,Chrome,Mac,800,1280,1.4536166666666666,
244,pilot,,,Marquis,decided,,,,,filler,,0,131,,,running,0,practice,1,[],list1,-1,,,-1,-1,,,,,,Chrome,Mac,800,1280,1.4536166666666666,
244,pilot,,,Marquis,to,,,,,filler,,0,133,,,running,0,practice,2,[],list1,-1,,,-1,-1,,,,,,Chrome,Mac,800,1280,1.4536166666666666,
244,pilot,,,Marquis,take,,,,,filler,,0,139,,,running,0,practice,3,[],list1,-1,,,-1,-1,,,,,,Chrome,Mac,800,1280,1.4536166666666666,
244,pilot,,,Marquis,advantage,,,,,filler,,0,134,,,running,0,practice,4,[],list1,-1,,,-1,-1,,,,,,Chrome,Mac,800,1280,1.4536166666666666,
244,pilot,,,Marquis,of,,,,,filler,,0,146,,,running,0,practice,5,[],list1,-1,,,-1,-1,,,,,,Chrome,Mac,800,1280,1.4536166666666666,
244,pilot,,,Marquis,the,,,,,filler,,0,133,,,running,0,practice,6,[],list1,-1,,,-1,-1,,,,,,Chrome,Mac,800,1280,1.4536166666666666,
244,pilot,,,Marquis,weather,,,,,filler,,0,159,,,running,0,practice,7,[],list1,-1,,,-1,-1,,,,,,Chrome,Mac,800,1280,1.4536166666666666,
244,pilot,,,Marquis,and,,,,,filler,,0,124,,,running,0,practice,8,[],list1,-1,,,-1,-1,,,,,,Chrome,Mac,800,1280,1.4536166666666666,
244,pilot,,,Marquis,go,,,,,filler,,0,144,,,running,0,practice,9,[],list1,-1,,,-1,-1,,,,,,Chrome,Mac,800,1280,1.4536166666666666,
244,pilot,,,Marquis,for,,,,,filler,,0,141,,,running,0,practice,10,[],list1,-1,,,-1,-1,,,,,,Chrome,Mac,800,1280,1.4536166666666666,
244,pilot,,,Marquis,a,,,,,filler,,0,131,,,running,0,practice,11,[],list1,-1,,,-1,-1,,,,,,Chrome,Mac,800,1280,1.4536166666666666,
244,pilot,,,Marquis,run,,,,,filler,,0,118,,,running,0,practice,12,[],list1,-1,,,-1,-1,,,,,,Chrome,Mac,800,1280,1.4536166666666666,
244,pilot,,,Marquis,today.,,,,,filler,,0,178,,,running,0,practice,13,[],list1,-1,,,-1,-1,,,,,,Chrome,Mac,800,1280,1.4536166666666666,
244,pilot,,,Marquis,He,,,,,filler,,1,142,,,groceries,0,practice,0,[],list1,-1,,,-1,-1,,,,,,Chrome,Mac,800,1280,1.4536166666666666,
244,pilot,,,Marquis,really,,,,,filler,,1,142,,,groceries,0,practice,1,[],list1,-1,,,-1,-1,,,,,,Chrome,Mac,800,1280,1.4536166666666666,
244,pilot,,,Marquis,wanted,,,,,filler,,1,138,,,groceries,0,practice,2,[],list1,-1,,,-1,-1,,,,,,Chrome,Mac,800,1280,1.4536166666666666,
244,pilot,,,Marquis,to,,,,,filler,,1,110,,,groceries,0,practice,3,[],list1,-1,,,-1,-1,,,,,,Chrome,Mac,800,1280,1.4536166666666666,
244,pilot,,,Marquis,pick,,,,,filler,,1,163,,,groceries,0,practice,4,[],list1,-1,,,-1,-1,,,,,,Chrome,Mac,800,1280,1.4536166666666666,
244,pilot,,,Marquis,up,,,,,filler,,1,134,,,groceries,0,practice,5,[],list1,-1,,,-1,-1,,,,,,Chrome,Mac,800,1280,1.4536166666666666,
244,pilot,,,Marquis,some,,,,,filler,,1,155,,,groceries,0,practice,6,[],list1,-1,,,-1,-1,,,,,,Chrome,Mac,800,1280,1.4536166666666666,
244,pilot,,,Marquis,eggs,,,,,filler,,1,132,,,groceries,0,practice,7,[],list1,-1,,,-1,-1,,,,,,Chrome,Mac,800,1280,1.4536166666666666,
244,pilot,,,Marquis,and,,,,,filler,,1,139,,,groceries,0,practice,8,[],list1,-1,,,-1,-1,,,,,,Chrome,Mac,800,1280,1.4536166666666666,
244,pilot,,,Marquis,orange,,,,,filler,,1,150,,,groceries,0,practice,9,[],list1,-1,,,-1,-1,,,,,,Chrome,Mac,800,1280,1.4536166666666666,
244,pilot,,,Marquis,juice,,,,,filler,,1,146,,,groceries,0,practice,10,[],list1,-1,,,-1,-1,,,,,,Chrome,Mac,800,1280,1.4536166666666666,
244,pilot,,,Marquis,for,,,,,filler,,1,149,,,groceries,0,practice,11,[],list1,-1,,,-1,-1,,,,,,Chrome,Mac,800,1280,1.4536166666666666,
244,pilot,,,Marquis,breakfast.,,,,,filler,,1,139,,,groceries,0,practice,12,[],list1,-1,,,-1,-1,,,,,,Chrome,Mac,800,1280,1.4536166666666666,
244,pilot,,,Marquis,Unfortunately,,,,,filler,,0,145,,,shaving,0,practice,0,[],list1,-1,,,-1,-1,,,,,,Chrome,Mac,800,1280,1.4536166666666666,
244,pilot,,,Marquis,he,,,,,filler,,0,142,,,shaving,0,practice,1,[],list1,-1,,,-1,-1,,,,,,Chrome,Mac,800,1280,1.4536166666666666,
244,pilot,,,Marquis,was,,,,,filler,,0,162,,,shaving,0,practice,2,[],list1,-1,,,-1,-1,,,,,,Chrome,Mac,800,1280,1.4536166666666666,
244,pilot,,,Marquis,out,,,,,filler,,0,150,,,shaving,0,practice,3,[],list1,-1,,,-1,-1,,,,,,Chrome,Mac,800,1280,1.4536166666666666,
244,pilot,,,Marquis,of,,,,,filler,,0,170,,,shaving,0,practice,4,[],list1,-1,,,-1,-1,,,,,,Chrome,Mac,800,1280,1.4536166666666666,
244,pilot,,,Marquis,shaving,,,,,filler,,0,158,,,shaving,0,practice,5,[],list1,-1,,,-1,-1,,,,,,Chrome,Mac,800,1280,1.4536166666666666,
244,pilot,,,Marquis,"cream,",,,,,filler,,0,145,,,shaving,0,practice,6,[],list1,-1,,,-1,-1,,,,,,Chrome,Mac,800,1280,1.4536166666666666,
244,pilot,,,Marquis,so,,,,,filler,,0,175,,,shaving,0,practice,7,[],list1,-1,,,-1,-1,,,,,,Chrome,Mac,800,1280,1.4536166666666666,
244,pilot,,,Marquis,he,,,,,filler,,0,154,,,shaving,0,practice,8,[],list1,-1,,,-1,-1,,,,,,Chrome,Mac,800,1280,1.4536166666666666,
244,pilot,,,Marquis,had,,,,,filler,,0,166,,,shaving,0,practice,9,[],list1,-1,,,-1,-1,,,,,,Chrome,Mac,800,1280,1.4536166666666666,
244,pilot,,,Marquis,to,,,,,filler,,0,146,,,shaving,0,practice,10,[],list1,-1,,,-1,-1,,,,,,Chrome,Mac,800,1280,1.4536166666666666,
244,pilot,,,Marquis,run,,,,,filler,,0,166,,,shaving,0,practice,11,[],list1,-1,,,-1,-1,,,,,,Chrome,Mac,800,1280,1.4536166666666666,
244,pilot,,,Marquis,to,,,,,filler,,0,145,,,shaving,0,practice,12,[],list1,-1,,,-1,-1,,,,,,Chrome,Mac,800,1280,1.4536166666666666,
244,pilot,,,Marquis,the,,,,,filler,,0,143,,,shaving,0,practice,13,[],list1,-1,,,-1,-1,,,,,,Chrome,Mac,800,1280,1.4536166666666666,
244,pilot,,,Marquis,store,,,,,filler,,0,274,,,shaving,0,practice,14,[],list1,-1,,,-1,-1,,,,,,Chrome,Mac,800,1280,1.4536166666666666,
244,pilot,,,Marquis,before,,,,,filler,,0,159,,,shaving,0,practice,15,[],list1,-1,,,-1,-1,,,,,,Chrome,Mac,800,1280,1.4536166666666666,
244,pilot,,,Marquis,shaving.,,,,,filler,,0,153,,,shaving,0,practice,16,[],list1,-1,,,-1,-1,,,,,,Chrome,Mac,800,1280,1.4536166666666666,
244,pilot,,white,Marquis,He,,1,1,black,filler,,1,141,,,test,0,critical,0,[],list1,-1,,,-1,-1,,,,,,Chrome,Mac,800,1280,1.4536166666666666,
244,pilot,,white,Marquis,hoped,,1,1,black,filler,,1,151,,,test,0,critical,1,[],list1,-1,,,-1,-1,,,,,,Chrome,Mac,800,1280,1.4536166666666666,
244,pilot,,white,Marquis,it,,1,1,black,filler,,1,162,,,test,0,critical,2,[],list1,-1,,,-1,-1,,,,,,Chrome,Mac,800,1280,1.4536166666666666,
244,pilot,,white,Marquis,wouldn&rsquo;t,,1,1,black,filler,,1,141,,,test,0,critical,3,[],list1,-1,,,-1,-1,,,,,,Chrome,Mac,800,1280,1.4536166666666666,
244,pilot,,white,Marquis,turn,,1,1,black,filler,,1,141,,,test,0,critical,4,[],list1,-1,,,-1,-1,,,,,,Chrome,Mac,800,1280,1.4536166666666666,
244,pilot,,white,Marquis,out,,1,1,black,filler,,1,156,,,test,0,critical,5,[],list1,-1,,,-1,-1,,,,,,Chrome,Mac,800,1280,1.4536166666666666,
244,pilot,,white,Marquis,like,,1,1,black,filler,,1,146,,,test,0,critical,6,[],list1,-1,,,-1,-1,,,,,,Chrome,Mac,800,1280,1.4536166666666666,
244,pilot,,white,Marquis,his,,1,1,black,filler,,1,158,,,test,0,critical,7,[],list1,-1,,,-1,-1,,,,,,Chrome,Mac,800,1280,1.4536166666666666,
244,pilot,,white,Marquis,worst,,1,1,black,filler,,1,170,,,test,0,critical,8,[],list1,-1,,,-1,-1,,,,,,Chrome,Mac,800,1280,1.4536166666666666,
244,pilot,,white,Marquis,math,,1,1,black,filler,,1,158,,,test,0,critical,9,[],list1,-1,,,-1,-1,,,,,,Chrome,Mac,800,1280,1.4536166666666666,
244,pilot,,white,Marquis,test,,1,1,black,filler,,1,154,,,test,0,critical,10,[],list1,-1,,,-1,-1,,,,,,Chrome,Mac,800,1280,1.4536166666666666,
244,pilot,,white,Marquis,from,,1,1,black,filler,,1,150,,,test,0,critical,11,[],list1,-1,,,-1,-1,,,,,,Chrome,Mac,800,1280,1.4536166666666666,
244,pilot,,white,Marquis,high,,1,1,black,filler,,1,154,,,test,0,critical,12,[],list1,-1,,,-1,-1,,,,,,Chrome,Mac,800,1280,1.4536166666666666,
244,pilot,,white,Marquis,school,,1,1,black,filler,,1,158,,,test,0,critical,13,[],list1,-1,,,-1,-1,,,,,,Chrome,Mac,800,1280,1.4536166666666666,
244,pilot,,white,Marquis,that,,1,1,black,filler,,1,145,,,test,0,critical,14,[],list1,-1,,,-1,-1,,,,,,Chrome,Mac,800,1280,1.4536166666666666,
244,pilot,,white,Marquis,he,,1,1,black,filler,,1,166,,,test,0,critical,15,[],list1,-1,,,-1,-1,,,,,,Chrome,Mac,800,1280,1.4536166666666666,
244,pilot,,white,Marquis,got,,1,1,black,filler,,1,162,,,test,0,critical,16,[],list1,-1,,,-1,-1,,,,,,Chrome,Mac,800,1280,1.4536166666666666,
244,pilot,,white,Marquis,a,,1,1,black,filler,,1,151,,,test,0,critical,17,[],list1,-1,,,-1,-1,,,,,,Chrome,Mac,800,1280,1.4536166666666666,
244,pilot,,white,Marquis,60,,1,1,black,filler,,1,146,,,test,0,critical,18,[],list1,-1,,,-1,-1,,,,,,Chrome,Mac,800,1280,1.4536166666666666,
244,pilot,,white,Marquis,percent,,1,1,black,filler,,1,150,,,test,0,critical,19,[],list1,-1,,,-1,-1,,,,,,Chrome,Mac,800,1280,1.4536166666666666,
244,pilot,,white,Marquis,on.,,1,1,black,filler,,1,148,,,test,0,critical,20,[],list1,-1,,,-1,-1,,,,,,Chrome,Mac,800,1280,1.4536166666666666,
244,pilot,,none,Kareem,But,,1,1,white,filler,,1,154,,,blue car,1,filler,0,[],list1,-1,,,-1,-1,,,,,,Chrome,Mac,800,1280,1.4536166666666666,
244,pilot,,none,Kareem,as,,1,1,white,filler,,1,168,,,blue car,1,filler,1,[],list1,-1,,,-1,-1,,,,,,Chrome,Mac,800,1280,1.4536166666666666,
244,pilot,,none,Kareem,Paul,,1,1,white,name,,1,167,,,blue car,1,filler,2,[],list1,-1,,,-1,-1,,,,,,Chrome,Mac,800,1280,1.4536166666666666,
244,pilot,,none,Kareem,checked,,1,1,white,filler,,1,159,,,blue car,1,filler,3,[],list1,-1,,,-1,-1,,,,,,Chrome,Mac,800,1280,1.4536166666666666,
244,pilot,,none,Kareem,"around,",,1,1,white,filler,,1,169,,,blue car,1,filler,4,[],list1,-1,,,-1,-1,,,,,,Chrome,Mac,800,1280,1.4536166666666666,
244,pilot,,none,Kareem,he,,1,1,white,filler,,1,158,,,blue car,1,filler,5,[],list1,-1,,,-1,-1,,,,,,Chrome,Mac,800,1280,1.4536166666666666,
244,pilot,,none,Kareem,realized,,1,1,white,filler,,1,156,,,blue car,1,filler,6,[],list1,-1,,,-1,-1,,,,,,Chrome,Mac,800,1280,1.4536166666666666,
244,pilot,,none,Kareem,that,,1,1,white,filler,,1,164,,,blue car,1,filler,7,[],list1,-1,,,-1,-1,,,,,,Chrome,Mac,800,1280,1.4536166666666666,
244,pilot,,none,Kareem,the,,1,1,white,filler,,1,164,,,blue car,1,filler,8,[],list1,-1,,,-1,-1,,,,,,Chrome,Mac,800,1280,1.4536166666666666,
244,pilot,,none,Kareem,only,,1,1,white,filler,,1,158,,,blue car,1,filler,9,[],list1,-1,,,-1,-1,,,,,,Chrome,Mac,800,1280,1.4536166666666666,
244,pilot,,none,Kareem,thing,,1,1,white,filler,,1,169,,,blue car,1,filler,10,[],list1,-1,,,-1,-1,,,,,,Chrome,Mac,800,1280,1.4536166666666666,
244,pilot,,none,Kareem,missing,,1,1,white,filler,,1,165,,,blue car,1,filler,11,[],list1,-1,,,-1,-1,,,,,,Chrome,Mac,800,1280,1.4536166666666666,
244,pilot,,none,Kareem,was,,1,1,white,filler,,1,163,,,blue car,1,filler,12,[],list1,-1,,,-1,-1,,,,,,Chrome,Mac,800,1280,1.4536166666666666,
244,pilot,,none,Kareem,the,,1,1,white,filler,,1,174,,,blue car,1,filler,13,[],list1,-1,,,-1,-1,,,,,,Chrome,Mac,800,1280,1.4536166666666666,
244,pilot,,none,Kareem,keys,,1,1,white,filler,,1,171,,,blue car,1,filler,14,[],list1,-1,,,-1,-1,,,,,,Chrome,Mac,800,1280,1.4536166666666666,
244,pilot,,none,Kareem,to,,1,1,white,filler,,1,165,,,blue car,1,filler,15,[],list1,-1,,,-1,-1,,,,,,Chrome,Mac,800,1280,1.4536166666666666,
244,pilot,,none,Kareem,his,,1,1,white,filler,,1,179,,,blue car,1,filler,16,[],list1,-1,,,-1,-1,,,,,,Chrome,Mac,800,1280,1.4536166666666666,
244,pilot,,none,Kareem,"car,",,1,1,white,filler,,1,165,,,blue car,1,filler,17,[],list1,-1,,,-1,-1,,,,,,Chrome,Mac,800,1280,1.4536166666666666,
244,pilot,,none,Kareem,which,,1,1,white,filler,,1,162,,,blue car,1,filler,18,[],list1,-1,,,-1,-1,,,,,,Chrome,Mac,800,1280,1.4536166666666666,
244,pilot,,none,Kareem,was,,1,1,white,filler,,1,166,,,blue car,1,filler,19,[],list1,-1,,,-1,-1,,,,,,Chrome,Mac,800,1280,1.4536166666666666,
244,pilot,,none,Kareem,a,,1,1,white,filler,,1,171,,,blue car,1,filler,20,[],list1,-1,,,-1,-1,,,,,,Chrome,Mac,800,1280,1.4536166666666666,
244,pilot,,none,Kareem,blue,,1,1,white,filler,,1,149,,,blue car,1,filler,21,[],list1,-1,,,-1,-1,,,,,,Chrome,Mac,800,1280,1.4536166666666666,
244,pilot,,none,Kareem,Toyota.,,1,1,white,filler,,1,146,,,blue car,1,filler,22,[],list1,-1,,,-1,-1,,,,,,Chrome,Mac,800,1280,1.4536166666666666,
244,pilot,,black,Jermaine,He,,1,1,white,filler,,1,161,,,performing,2,critical,0,[],list1,-1,,,-1,-1,,,,,,Chrome,Mac,800,1280,1.4536166666666666,
244,pilot,,black,Jermaine,knew,,1,1,white,filler,,1,175,,,performing,2,critical,1,[],list1,-1,,,-1,-1,,,,,,Chrome,Mac,800,1280,1.4536166666666666,
244,pilot,,black,Jermaine,that,,1,1,white,filler,,1,178,,,performing,2,critical,2,[],list1,-1,,,-1,-1,,,,,,Chrome,Mac,800,1280,1.4536166666666666,
244,pilot,,black,Jermaine,no,,1,1,white,filler,,1,166,,,performing,2,critical,3,[],list1,-1,,,-1,-1,,,,,,Chrome,Mac,800,1280,1.4536166666666666,
244,pilot,,black,Jermaine,matter,,1,1,white,filler,,1,162,,,performing,2,critical,4,[],list1,-1,,,-1,-1,,,,,,Chrome,Mac,800,1280,1.4536166666666666,
244,pilot,,black,Jermaine,how,,1,1,white,filler,,1,151,,,performing,2,critical,5,[],list1,-1,,,-1,-1,,,,,,Chrome,Mac,800,1280,1.4536166666666666,
244,pilot,,black,Jermaine,many,,1,1,white,filler,,1,169,,,performing,2,critical,6,[],list1,-1,,,-1,-1,,,,,,Chrome,Mac,800,1280,1.4536166666666666,
244,pilot,,black,Jermaine,times,,1,1,white,filler,,1,174,,,performing,2,critical,7,[],list1,-1,,,-1,-1,,,,,,Chrome,Mac,800,1280,1.4536166666666666,
244,pilot,,black,Jermaine,he,,1,1,white,filler,,1,162,,,performing,2,critical,8,[],list1,-1,,,-1,-1,,,,,,Chrome,Mac,800,1280,1.4536166666666666,
244,pilot,,black,Jermaine,got,,1,1,white,filler,,1,160,,,performing,2,critical,9,[],list1,-1,,,-1,-1,,,,,,Chrome,Mac,800,1280,1.4536166666666666,
244,pilot,,black,Jermaine,on,,1,1,white,filler,,1,168,,,performing,2,critical,10,[],list1,-1,,,-1,-1,,,,,,Chrome,Mac,800,1280,1.4536166666666666,
244,pilot,,black,Jermaine,"stage,",,1,1,white,filler,,1,166,,,performing,2,critical,11,[],list1,-1,,,-1,-1,,,,,,Chrome,Mac,800,1280,1.4536166666666666,
244,pilot,,black,Jermaine,he,,1,1,white,filler,,1,170,,,performing,2,critical,12,[],list1,-1,,,-1,-1,,,,,,Chrome,Mac,800,1280,1.4536166666666666,
244,pilot,,black,Jermaine,would,,1,1,white,filler,,1,166,,,performing,2,critical,13,[],list1,-1,,,-1,-1,,,,,,Chrome,Mac,800,1280,1.4536166666666666,
244,pilot,,black,Jermaine,always,,1,1,white,filler,,1,170,,,performing,2,critical,14,[],list1,-1,,,-1,-1,,,,,,Chrome,Mac,800,1280,1.4536166666666666,
244,pilot,,black,Jermaine,be,,1,1,white,filler,,1,182,,,performing,2,critical,15,[],list1,-1,,,-1,-1,,,,,,Chrome,Mac,800,1280,1.4536166666666666,
244,pilot,,black,Jermaine,nervous,,1,1,white,filler,,1,187,,,performing,2,critical,16,[],list1,-1,,,-1,-1,,,,,,Chrome,Mac,800,1280,1.4536166666666666,
244,pilot,,black,Jermaine,to,,1,1,white,filler,,1,173,,,performing,2,critical,17,[],list1,-1,,,-1,-1,,,,,,Chrome,Mac,800,1280,1.4536166666666666,
244,pilot,,black,Jermaine,play,,1,1,white,filler,,1,171,,,performing,2,critical,18,[],list1,-1,,,-1,-1,,,,,,Chrome,Mac,800,1280,1.4536166666666666,
244,pilot,,black,Jermaine,the,,1,1,white,filler,,1,180,,,performing,2,critical,19,[],list1,-1,,,-1,-1,,,,,,Chrome,Mac,800,1280,1.4536166666666666,
244,pilot,,black,Jermaine,saxophone,,1,1,white,filler,,1,187,,,performing,2,critical,20,[],list1,-1,,,-1,-1,,,,,,Chrome,Mac,800,1280,1.4536166666666666,
244,pilot,,black,Jermaine,in,,1,1,white,filler,,1,174,,,performing,2,critical,21,[],list1,-1,,,-1,-1,,,,,,Chrome,Mac,800,1280,1.4536166666666666,
244,pilot,,black,Jermaine,front,,1,1,white,filler,,1,187,,,performing,2,critical,22,[],list1,-1,,,-1,-1,,,,,,Chrome,Mac,800,1280,1.4536166666666666,
244,pilot,,black,Jermaine,of,,1,1,white,filler,,1,165,,,performing,2,critical,23,[],list1,-1,,,-1,-1,,,,,,Chrome,Mac,800,1280,1.4536166666666666,
244,pilot,,black,Jermaine,an,,1,1,white,filler,,1,171,,,performing,2,critical,24,[],list1,-1,,,-1,-1,,,,,,Chrome,Mac,800,1280,1.4536166666666666,
244,pilot,,black,Jermaine,audience.,,1,1,white,filler,,1,133,,,performing,2,critical,25,[],list1,-1,,,-1,-1,,,,,,Chrome,Mac,800,1280,1.4536166666666666,
244,pilot,,none,Deshawn,It,,1,1,black,filler,,1,150,,,job,3,filler,0,[],list1,-1,,,-1,-1,,,,,,Chrome,Mac,800,1280,1.4536166666666666,
244,pilot,,none,Deshawn,was,,1,1,black,filler,,1,185,,,job,3,filler,1,[],list1,-1,,,-1,-1,,,,,,Chrome,Mac,800,1280,1.4536166666666666,
244,pilot,,none,Deshawn,going,,1,1,black,filler,,1,167,,,job,3,filler,2,[],list1,-1,,,-1,-1,,,,,,Chrome,Mac,800,1280,1.4536166666666666,
244,pilot,,none,Deshawn,to,,1,1,black,filler,,1,186,,,job,3,filler,3,[],list1,-1,,,-1,-1,,,,,,Chrome,Mac,800,1280,1.4536166666666666,
244,pilot,,none,Deshawn,be,,1,1,black,filler,,1,158,,,job,3,filler,4,[],list1,-1,,,-1,-1,,,,,,Chrome,Mac,800,1280,1.4536166666666666,
244,pilot,,none,Deshawn,a,,1,1,black,filler,,1,163,,,job,3,filler,5,[],list1,-1,,,-1,-1,,,,,,Chrome,Mac,800,1280,1.4536166666666666,
244,pilot,,none,Deshawn,long,,1,1,black,filler,,1,189,,,job,3,filler,6,[],list1,-1,,,-1,-1,,,,,,Chrome,Mac,800,1280,1.4536166666666666,
244,pilot,,none,Deshawn,day,,1,1,black,filler,,1,163,,,job,3,filler,7,[],list1,-1,,,-1,-1,,,,,,Chrome,Mac,800,1280,1.4536166666666666,
244,pilot,,none,Deshawn,at,,1,1,black,filler,,1,173,,,job,3,filler,8,[],list1,-1,,,-1,-1,,,,,,Chrome,Mac,800,1280,1.4536166666666666,
244,pilot,,none,Deshawn,the,,1,1,black,filler,,1,170,,,job,3,filler,9,[],list1,-1,,,-1,-1,,,,,,Chrome,Mac,800,1280,1.4536166666666666,
244,pilot,,none,Deshawn,office,,1,1,black,filler,,1,158,,,job,3,filler,10,[],list1,-1,,,-1,-1,,,,,,Chrome,Mac,800,1280,1.4536166666666666,
244,pilot,,none,Deshawn,"tomorrow,",,1,1,black,filler,,1,171,,,job,3,filler,11,[],list1,-1,,,-1,-1,,,,,,Chrome,Mac,800,1280,1.4536166666666666,
244,pilot,,none,Deshawn,and,,1,1,black,filler,,1,165,,,job,3,filler,12,[],list1,-1,,,-1,-1,,,,,,Chrome,Mac,800,1280,1.4536166666666666,
244,pilot,,none,Deshawn,he,,1,1,black,filler,,1,163,,,job,3,filler,13,[],list1,-1,,,-1,-1,,,,,,Chrome,Mac,800,1280,1.4536166666666666,
244,pilot,,none,Deshawn,knew,,1,1,black,filler,,1,149,,,job,3,filler,14,[],list1,-1,,,-1,-1,,,,,,Chrome,Mac,800,1280,1.4536166666666666,
244,pilot,,none,Deshawn,that,,1,1,black,filler,,1,171,,,job,3,filler,15,[],list1,-1,,,-1,-1,,,,,,Chrome,Mac,800,1280,1.4536166666666666,
244,pilot,,none,Deshawn,without,,1,1,black,filler,,1,157,,,job,3,filler,16,[],list1,-1,,,-1,-1,,,,,,Chrome,Mac,800,1280,1.4536166666666666,
244,pilot,,none,Deshawn,eight,,1,1,black,filler,,1,161,,,job,3,filler,17,[],list1,-1,,,-1,-1,,,,,,Chrome,Mac,800,1280,1.4536166666666666,
244,pilot,,none,Deshawn,hours,,1,1,black,filler,,1,166,,,job,3,filler,18,[],list1,-1,,,-1,-1,,,,,,Chrome,Mac,800,1280,1.4536166666666666,
244,pilot,,none,Deshawn,of,,1,1,black,filler,,1,179,,,job,3,filler,19,[],list1,-1,,,-1,-1,,,,,,Chrome,Mac,800,1280,1.4536166666666666,
244,pilot,,none,Deshawn,sleep,,1,1,black,filler,,1,166,,,job,3,filler,20,[],list1,-1,,,-1,-1,,,,,,Chrome,Mac,800,1280,1.4536166666666666,
244,pilot,,none,Deshawn,he,,1,1,black,filler,,1,162,,,job,3,filler,21,[],list1,-1,,,-1,-1,,,,,,Chrome,Mac,800,1280,1.4536166666666666,
244,pilot,,none,Deshawn,would,,1,1,black,filler,,1,182,,,job,3,filler,22,[],list1,-1,,,-1,-1,,,,,,Chrome,Mac,800,1280,1.4536166666666666,
244,pilot,,none,Deshawn,get,,1,1,black,filler,,1,179,,,job,3,filler,23,[],list1,-1,,,-1,-1,,,,,,Chrome,Mac,800,1280,1.4536166666666666,
244,pilot,,none,Deshawn,really,,1,1,black,filler,,1,165,,,job,3,filler,24,[],list1,-1,,,-1,-1,,,,,,Chrome,Mac,800,1280,1.4536166666666666,
244,pilot,,none,Deshawn,tired,,1,1,black,filler,,1,170,,,job,3,filler,25,[],list1,-1,,,-1,-1,,,,,,Chrome,Mac,800,1280,1.4536166666666666,
244,pilot,,none,Deshawn,on,,1,1,black,filler,,1,158,,,job,3,filler,26,[],list1,-1,,,-1,-1,,,,,,Chrome,Mac,800,1280,1.4536166666666666,
244,pilot,,none,Deshawn,the,,1,1,black,filler,,1,171,,,job,3,filler,27,[],list1,-1,,,-1,-1,,,,,,Chrome,Mac,800,1280,1.4536166666666666,
244,pilot,,none,Deshawn,job.,,1,1,black,filler,,1,213,,,job,3,filler,28,[],list1,-1,,,-1,-1,,,,,,Chrome,Mac,800,1280,1.4536166666666666,
244,pilot,,white,Deandre,He,,1,1,white,filler,,1,158,,,lesson,4,critical,0,[],list1,-1,,,-1,-1,,,,,,Chrome,Mac,800,1280,1.4536166666666666,
244,pilot,,white,Deandre,rushed,,1,1,white,filler,,1,162,,,lesson,4,critical,1,[],list1,-1,,,-1,-1,,,,,,Chrome,Mac,800,1280,1.4536166666666666,
244,pilot,,white,Deandre,out,,1,1,white,filler,,1,181,,,lesson,4,critical,2,[],list1,-1,,,-1,-1,,,,,,Chrome,Mac,800,1280,1.4536166666666666,
244,pilot,,white,Deandre,the,,1,1,white,filler,,1,162,,,lesson,4,critical,3,[],list1,-1,,,-1,-1,,,,,,Chrome,Mac,800,1280,1.4536166666666666,
244,pilot,,white,Deandre,door,,1,1,white,filler,,1,157,,,lesson,4,critical,4,[],list1,-1,,,-1,-1,,,,,,Chrome,Mac,800,1280,1.4536166666666666,
244,pilot,,white,Deandre,to,,1,1,white,filler,,1,172,,,lesson,4,critical,5,[],list1,-1,,,-1,-1,,,,,,Chrome,Mac,800,1280,1.4536166666666666,
244,pilot,,white,Deandre,go,,1,1,white,filler,,1,173,,,lesson,4,critical,6,[],list1,-1,,,-1,-1,,,,,,Chrome,Mac,800,1280,1.4536166666666666,
244,pilot,,white,Deandre,pick,,1,1,white,filler,,1,163,,,lesson,4,critical,7,[],list1,-1,,,-1,-1,,,,,,Chrome,Mac,800,1280,1.4536166666666666,
244,pilot,,white,Deandre,up,,1,1,white,filler,,1,157,,,lesson,4,critical,8,[],list1,-1,,,-1,-1,,,,,,Chrome,Mac,800,1280,1.4536166666666666,
244,pilot,,white,Deandre,his,,1,1,white,filler,,1,179,,,lesson,4,critical,9,[],list1,-1,,,-1,-1,,,,,,Chrome,Mac,800,1280,1.4536166666666666,
244,pilot,,white,Deandre,little,,1,1,white,filler,,1,165,,,lesson,4,critical,10,[],list1,-1,,,-1,-1,,,,,,Chrome,Mac,800,1280,1.4536166666666666,
244,pilot,,white,Deandre,brother,,1,1,white,filler,,1,178,,,lesson,4,critical,11,[],list1,-1,,,-1,-1,,,,,,Chrome,Mac,800,1280,1.4536166666666666,
244,pilot,,white,Deandre,from,,1,1,white,filler,,1,167,,,lesson,4,critical,12,[],list1,-1,,,-1,-1,,,,,,Chrome,Mac,800,1280,1.4536166666666666,
244,pilot,,white,Deandre,his,,1,1,white,filler,,1,186,,,lesson,4,critical,13,[],list1,-1,,,-1,-1,,,,,,Chrome,Mac,800,1280,1.4536166666666666,
244,pilot,,white,Deandre,tennis,,1,1,white,filler,,1,181,,,lesson,4,critical,14,[],list1,-1,,,-1,-1,,,,,,Chrome,Mac,800,1280,1.4536166666666666,
244,pilot,,white,Deandre,lesson.,,1,1,white,filler,,1,202,,,lesson,4,critical,15,[],list1,-1,,,-1,-1,,,,,,Chrome,Mac,800,1280,1.4536166666666666,
244,pilot,,white,Hakeem,He,,1,1,black,filler,,0,154,,,park,5,critical,0,[],list1,-1,,,-1,-1,,,,,,Chrome,Mac,800,1280,1.4536166666666666,
244,pilot,,white,Hakeem,quickly,,1,1,black,filler,,0,165,,,park,5,critical,1,[],list1,-1,,,-1,-1,,,,,,Chrome,Mac,800,1280,1.4536166666666666,
244,pilot,,white,Hakeem,got,,1,1,black,filler,,0,162,,,park,5,critical,2,[],list1,-1,,,-1,-1,,,,,,Chrome,Mac,800,1280,1.4536166666666666,
244,pilot,,white,Hakeem,moving,,1,1,black,filler,,0,167,,,park,5,critical,3,[],list1,-1,,,-1,-1,,,,,,Chrome,Mac,800,1280,1.4536166666666666,
244,pilot,,white,Hakeem,to,,1,1,black,filler,,0,178,,,park,5,critical,4,[],list1,-1,,,-1,-1,,,,,,Chrome,Mac,800,1280,1.4536166666666666,
244,pilot,,white,Hakeem,go,,1,1,black,filler,,0,150,,,park,5,critical,5,[],list1,-1,,,-1,-1,,,,,,Chrome,Mac,800,1280,1.4536166666666666,
244,pilot,,white,Hakeem,pick,,1,1,black,filler,,0,169,,,park,5,critical,6,[],list1,-1,,,-1,-1,,,,,,Chrome,Mac,800,1280,1.4536166666666666,
244,pilot,,white,Hakeem,up,,1,1,black,filler,,0,166,,,park,5,critical,7,[],list1,-1,,,-1,-1,,,,,,Chrome,Mac,800,1280,1.4536166666666666,
244,pilot,,white,Hakeem,his,,1,1,black,filler,,0,170,,,park,5,critical,8,[],list1,-1,,,-1,-1,,,,,,Chrome,Mac,800,1280,1.4536166666666666,
244,pilot,,white,Hakeem,little,,1,1,black,filler,,0,166,,,park,5,critical,9,[],list1,-1,,,-1,-1,,,,,,Chrome,Mac,800,1280,1.4536166666666666,
244,pilot,,white,Hakeem,cousin,,1,1,black,filler,,0,163,,,park,5,critical,10,[],list1,-1,,,-1,-1,,,,,,Chrome,Mac,800,1280,1.4536166666666666,
244,pilot,,white,Hakeem,from,,1,1,black,filler,,0,166,,,park,5,critical,11,[],list1,-1,,,-1,-1,,,,,,Chrome,Mac,800,1280,1.4536166666666666,
244,pilot,,white,Hakeem,volleyball,,1,1,black,filler,,0,178,,,park,5,critical,12,[],list1,-1,,,-1,-1,,,,,,Chrome,Mac,800,1280,1.4536166666666666,
244,pilot,,white,Hakeem,practice.,,1,1,black,filler,,0,181,,,park,5,critical,13,[],list1,-1,,,-1,-1,,,,,,Chrome,Mac,800,1280,1.4536166666666666,
244,pilot,,none,Jamal,He,,1,1,black,filler,,1,133,,,poker,6,filler,0,[],list1,-1,,,-1,-1,,,,,,Chrome,Mac,800,1280,1.4536166666666666,
244,pilot,,none,Jamal,couldn&rsquo;t,,1,1,black,filler,,1,171,,,poker,6,filler,1,[],list1,-1,,,-1,-1,,,,,,Chrome,Mac,800,1280,1.4536166666666666,
244,pilot,,none,Jamal,wait,,1,1,black,filler,,1,158,,,poker,6,filler,2,[],list1,-1,,,-1,-1,,,,,,Chrome,Mac,800,1280,1.4536166666666666,
244,pilot,,none,Jamal,to,,1,1,black,filler,,1,170,,,poker,6,filler,3,[],list1,-1,,,-1,-1,,,,,,Chrome,Mac,800,1280,1.4536166666666666,
244,pilot,,none,Jamal,beat,,1,1,black,filler,,1,164,,,poker,6,filler,4,[],list1,-1,,,-1,-1,,,,,,Chrome,Mac,800,1280,1.4536166666666666,
244,pilot,,none,Jamal,them,,1,1,black,filler,,1,172,,,poker,6,filler,5,[],list1,-1,,,-1,-1,,,,,,Chrome,Mac,800,1280,1.4536166666666666,
244,pilot,,none,Jamal,at,,1,1,black,filler,,1,158,,,poker,6,filler,6,[],list1,-1,,,-1,-1,,,,,,Chrome,Mac,800,1280,1.4536166666666666,
244,pilot,,none,Jamal,a,,1,1,black,filler,,1,170,,,poker,6,filler,7,[],list1,-1,,,-1,-1,,,,,,Chrome,Mac,800,1280,1.4536166666666666,
244,pilot,,none,Jamal,game,,1,1,black,filler,,1,164,,,poker,6,filler,8,[],list1,-1,,,-1,-1,,,,,,Chrome,Mac,800,1280,1.4536166666666666,
244,pilot,,none,Jamal,of,,1,1,black,filler,,1,173,,,poker,6,filler,9,[],list1,-1,,,-1,-1,,,,,,Chrome,Mac,800,1280,1.4536166666666666,
244,pilot,,none,Jamal,poker,,1,1,black,filler,,1,156,,,poker,6,filler,10,[],list1,-1,,,-1,-1,,,,,,Chrome,Mac,800,1280,1.4536166666666666,
244,pilot,,none,Jamal,again.,,1,1,black,filler,,1,181,,,poker,6,filler,11,[],list1,-1,,,-1,-1,,,,,,Chrome,Mac,800,1280,1.4536166666666666,
244,pilot,,none,Tyrone,He,,1,1,black,filler,,0,147,,,driving,7,filler,0,[],list1,-1,,,-1,-1,,,,,,Chrome,Mac,800,1280,1.4536166666666666,
244,pilot,,none,Tyrone,did,,1,1,black,filler,,0,141,,,driving,7,filler,1,[],list1,-1,,,-1,-1,,,,,,Chrome,Mac,800,1280,1.4536166666666666,
244,pilot,,none,Tyrone,not,,1,1,black,filler,,0,162,,,driving,7,filler,2,[],list1,-1,,,-1,-1,,,,,,Chrome,Mac,800,1280,1.4536166666666666,
244,pilot,,none,Tyrone,expect,,1,1,black,filler,,0,134,,,driving,7,filler,3,[],list1,-1,,,-1,-1,,,,,,Chrome,Mac,800,1280,1.4536166666666666,
244,pilot,,none,Tyrone,to,,1,1,black,filler,,0,138,,,driving,7,filler,4,[],list1,-1,,,-1,-1,,,,,,Chrome,Mac,800,1280,1.4536166666666666,
244,pilot,,none,Tyrone,see,,1,1,black,filler,,0,150,,,driving,7,filler,5,[],list1,-1,,,-1,-1,,,,,,Chrome,Mac,800,1280,1.4536166666666666,
244,pilot,,none,Tyrone,a,,1,1,black,filler,,0,137,,,driving,7,filler,6,[],list1,-1,,,-1,-1,,,,,,Chrome,Mac,800,1280,1.4536166666666666,
244,pilot,,none,Tyrone,deer,,1,1,black,filler,,0,126,,,driving,7,filler,7,[],list1,-1,,,-1,-1,,,,,,Chrome,Mac,800,1280,1.4536166666666666,
244,pilot,,none,Tyrone,run,,1,1,black,filler,,0,163,,,driving,7,filler,8,[],list1,-1,,,-1,-1,,,,,,Chrome,Mac,800,1280,1.4536166666666666,
244,pilot,,none,Tyrone,across,,1,1,black,filler,,0,158,,,driving,7,filler,9,[],list1,-1,,,-1,-1,,,,,,Chrome,Mac,800,1280,1.4536166666666666,
244,pilot,,none,Tyrone,the,,1,1,black,filler,,0,178,,,driving,7,filler,10,[],list1,-1,,,-1,-1,,,,,,Chrome,Mac,800,1280,1.4536166666666666,
244,pilot,,none,Tyrone,road,,1,1,black,filler,,0,158,,,driving,7,filler,11,[],list1,-1,,,-1,-1,,,,,,Chrome,Mac,800,1280,1.4536166666666666,
244,pilot,,none,Tyrone,in,,1,1,black,filler,,0,162,,,driving,7,filler,12,[],list1,-1,,,-1,-1,,,,,,Chrome,Mac,800,1280,1.4536166666666666,
244,pilot,,none,Tyrone,front,,1,1,black,filler,,0,166,,,driving,7,filler,13,[],list1,-1,,,-1,-1,,,,,,Chrome,Mac,800,1280,1.4536166666666666,
244,pilot,,none,Tyrone,of,,1,1,black,filler,,0,178,,,driving,7,filler,14,[],list1,-1,,,-1,-1,,,,,,Chrome,Mac,800,1280,1.4536166666666666,
244,pilot,,none,Tyrone,him.,,1,1,black,filler,,0,261,,,driving,7,filler,15,[],list1,-1,,,-1,-1,,,,,,Chrome,Mac,800,1280,1.4536166666666666,
244,pilot,,black,Deion,&quot;I,,1,1,black,filler,,0,136,,,food,8,critical,0,[],list1,-1,,,-1,-1,,,,,,Chrome,Mac,800,1280,1.4536166666666666,
244,pilot,,black,Deion,could,,1,1,black,filler,,0,161,,,food,8,critical,1,[],list1,-1,,,-1,-1,,,,,,Chrome,Mac,800,1280,1.4536166666666666,
244,pilot,,black,Deion,sure,,1,1,black,filler,,0,150,,,food,8,critical,2,[],list1,-1,,,-1,-1,,,,,,Chrome,Mac,800,1280,1.4536166666666666,
244,pilot,,black,Deion,go,,1,1,black,filler,,0,162,,,food,8,critical,3,[],list1,-1,,,-1,-1,,,,,,Chrome,Mac,800,1280,1.4536166666666666,
244,pilot,,black,Deion,for,,1,1,black,filler,,0,174,,,food,8,critical,4,[],list1,-1,,,-1,-1,,,,,,Chrome,Mac,800,1280,1.4536166666666666,
244,pilot,,black,Deion,some,,1,1,black,filler,,0,155,,,food,8,critical,5,[],list1,-1,,,-1,-1,,,,,,Chrome,Mac,800,1280,1.4536166666666666,
244,pilot,,black,Deion,Popeye&rsquo;s,,1,1,black,filler,,0,148,,,food,8,critical,6,[],list1,-1,,,-1,-1,,,,,,Chrome,Mac,800,1280,1.4536166666666666,
244,pilot,,black,Deion,right,,1,1,black,filler,,0,154,,,food,8,critical,7,[],list1,-1,,,-1,-1,,,,,,Chrome,Mac,800,1280,1.4536166666666666,
244,pilot,,black,Deion,"now,&quot;",,1,1,black,filler,,0,166,,,food,8,critical,8,[],list1,-1,,,-1,-1,,,,,,Chrome,Mac,800,1280,1.4536166666666666,
244,pilot,,black,Deion,he,,1,1,black,filler,,0,155,,,food,8,critical,9,[],list1,-1,,,-1,-1,,,,,,Chrome,Mac,800,1280,1.4536166666666666,
244,pilot,,black,Deion,thought.,,1,1,black,filler,,0,277,,,food,8,critical,10,[],list1,-1,,,-1,-1,,,,,,Chrome,Mac,800,1280,1.4536166666666666,
244,pilot,,black,Marquis,He,,1,1,black,filler,,0,125,,,lazy day,9,critical,0,[],list1,-1,,,-1,-1,,,,,,Chrome,Mac,800,1280,1.4536166666666666,
244,pilot,,black,Marquis,was,,1,1,black,filler,,0,171,,,lazy day,9,critical,1,[],list1,-1,,,-1,-1,,,,,,Chrome,Mac,800,1280,1.4536166666666666,
244,pilot,,black,Marquis,looking,,1,1,black,filler,,0,157,,,lazy day,9,critical,2,[],list1,-1,,,-1,-1,,,,,,Chrome,Mac,800,1280,1.4536166666666666,
244,pilot,,black,Marquis,forward,,1,1,black,filler,,0,179,,,lazy day,9,critical,3,[],list1,-1,,,-1,-1,,,,,,Chrome,Mac,800,1280,1.4536166666666666,
244,pilot,,black,Marquis,to,,1,1,black,filler,,0,157,,,lazy day,9,critical,4,[],list1,-1,,,-1,-1,,,,,,Chrome,Mac,800,1280,1.4536166666666666,
244,pilot,,black,Marquis,having,,1,1,black,filler,,0,172,,,lazy day,9,critical,5,[],list1,-1,,,-1,-1,,,,,,Chrome,Mac,800,1280,1.4536166666666666,
244,pilot,,black,Marquis,the,,1,1,black,filler,,0,166,,,lazy day,9,critical,6,[],list1,-1,,,-1,-1,,,,,,Chrome,Mac,800,1280,1.4536166666666666,
244,pilot,,black,Marquis,time,,1,1,black,filler,,0,160,,,lazy day,9,critical,7,[],list1,-1,,,-1,-1,,,,,,Chrome,Mac,800,1280,1.4536166666666666,
244,pilot,,black,Marquis,to,,1,1,black,filler,,0,167,,,lazy day,9,critical,8,[],list1,-1,,,-1,-1,,,,,,Chrome,Mac,800,1280,1.4536166666666666,
244,pilot,,black,Marquis,rest,,1,1,black,filler,,0,170,,,lazy day,9,critical,9,[],list1,-1,,,-1,-1,,,,,,Chrome,Mac,800,1280,1.4536166666666666,
244,pilot,,black,Marquis,a,,1,1,black,filler,,0,173,,,lazy day,9,critical,10,[],list1,-1,,,-1,-1,,,,,,Chrome,Mac,800,1280,1.4536166666666666,
244,pilot,,black,Marquis,lot,,1,1,black,filler,,0,165,,,lazy day,9,critical,11,[],list1,-1,,,-1,-1,,,,,,Chrome,Mac,800,1280,1.4536166666666666,
244,pilot,,black,Marquis,"today,",,1,1,black,filler,,0,171,,,lazy day,9,critical,12,[],list1,-1,,,-1,-1,,,,,,Chrome,Mac,800,1280,1.4536166666666666,
244,pilot,,black,Marquis,which,,1,1,black,filler,,0,171,,,lazy day,9,critical,13,[],list1,-1,,,-1,-1,,,,,,Chrome,Mac,800,1280,1.4536166666666666,
244,pilot,,black,Marquis,he,,1,1,black,filler,,0,198,,,lazy day,9,critical,14,[],list1,-1,,,-1,-1,,,,,,Chrome,Mac,800,1280,1.4536166666666666,
244,pilot,,black,Marquis,hadn't,,1,1,black,filler,,0,186,,,lazy day,9,critical,15,[],list1,-1,,,-1,-1,,,,,,Chrome,Mac,800,1280,1.4536166666666666,
244,pilot,,black,Marquis,had,,1,1,black,filler,,0,166,,,lazy day,9,critical,16,[],list1,-1,,,-1,-1,,,,,,Chrome,Mac,800,1280,1.4536166666666666,
244,pilot,,black,Marquis,the,,1,1,black,filler,,0,161,,,lazy day,9,critical,17,[],list1,-1,,,-1,-1,,,,,,Chrome,Mac,800,1280,1.4536166666666666,
244,pilot,,black,Marquis,time,,1,1,black,filler,,0,167,,,lazy day,9,critical,18,[],list1,-1,,,-1,-1,,,,,,Chrome,Mac,800,1280,1.4536166666666666,
244,pilot,,black,Marquis,to,,1,1,black,filler,,0,171,,,lazy day,9,critical,19,[],list1,-1,,,-1,-1,,,,,,Chrome,Mac,800,1280,1.4536166666666666,
244,pilot,,black,Marquis,in,,1,1,black,filler,,0,144,,,lazy day,9,critical,20,[],list1,-1,,,-1,-1,,,,,,Chrome,Mac,800,1280,1.4536166666666666,
244,pilot,,black,Marquis,a,,1,1,black,filler,,0,159,,,lazy day,9,critical,21,[],list1,-1,,,-1,-1,,,,,,Chrome,Mac,800,1280,1.4536166666666666,
244,pilot,,black,Marquis,while.,,1,1,black,filler,,0,183,,,lazy day,9,critical,22,[],list1,-1,,,-1,-1,,,,,,Chrome,Mac,800,1280,1.4536166666666666,
244,pilot,,black,Kareem,He,,1,1,white,filler,,0,149,,,fancy restaurant,10,critical,0,[],list1,-1,,,-1,-1,,,,,,Chrome,Mac,800,1280,1.4536166666666666,
244,pilot,,black,Kareem,had,,1,1,white,filler,,0,168,,,fancy restaurant,10,critical,1,[],list1,-1,,,-1,-1,,,,,,Chrome,Mac,800,1280,1.4536166666666666,
244,pilot,,black,Kareem,made,,1,1,white,filler,,0,144,,,fancy restaurant,10,critical,2,[],list1,-1,,,-1,-1,,,,,,Chrome,Mac,800,1280,1.4536166666666666,
244,pilot,,black,Kareem,a,,1,1,white,filler,,0,146,,,fancy restaurant,10,critical,3,[],list1,-1,,,-1,-1,,,,,,Chrome,Mac,800,1280,1.4536166666666666,
244,pilot,,black,Kareem,reservation,,1,1,white,filler,,0,174,,,fancy restaurant,10,critical,4,[],list1,-1,,,-1,-1,,,,,,Chrome,Mac,800,1280,1.4536166666666666,
244,pilot,,black,Kareem,at,,1,1,white,filler,,0,163,,,fancy restaurant,10,critical,5,[],list1,-1,,,-1,-1,,,,,,Chrome,Mac,800,1280,1.4536166666666666,
244,pilot,,black,Kareem,"Chili&rsquo;s,",,1,1,white,filler,,0,164,,,fancy restaurant,10,critical,6,[],list1,-1,,,-1,-1,,,,,,Chrome,Mac,800,1280,1.4536166666666666,
244,pilot,,black,Kareem,and,,1,1,white,filler,,0,171,,,fancy restaurant,10,critical,7,[],list1,-1,,,-1,-1,,,,,,Chrome,Mac,800,1280,1.4536166666666666,
244,pilot,,black,Kareem,was,,1,1,white,filler,,0,165,,,fancy restaurant,10,critical,8,[],list1,-1,,,-1,-1,,,,,,Chrome,Mac,800,1280,1.4536166666666666,
244,pilot,,black,Kareem,looking,,1,1,white,filler,,0,171,,,fancy restaurant,10,critical,9,[],list1,-1,,,-1,-1,,,,,,Chrome,Mac,800,1280,1.4536166666666666,
244,pilot,,black,Kareem,forward,,1,1,white,filler,,0,158,,,fancy restaurant,10,critical,10,[],list1,-1,,,-1,-1,,,,,,Chrome,Mac,800,1280,1.4536166666666666,
244,pilot,,black,Kareem,to,,1,1,white,filler,,0,171,,,fancy restaurant,10,critical,11,[],list1,-1,,,-1,-1,,,,,,Chrome,Mac,800,1280,1.4536166666666666,
244,pilot,,black,Kareem,taking,,1,1,white,filler,,0,165,,,fancy restaurant,10,critical,12,[],list1,-1,,,-1,-1,,,,,,Chrome,Mac,800,1280,1.4536166666666666,
244,pilot,,black,Kareem,his,,1,1,white,filler,,0,155,,,fancy restaurant,10,critical,13,[],list1,-1,,,-1,-1,,,,,,Chrome,Mac,800,1280,1.4536166666666666,
244,pilot,,black,Kareem,partner,,1,1,white,filler,,0,157,,,fancy restaurant,10,critical,14,[],list1,-1,,,-1,-1,,,,,,Chrome,Mac,800,1280,1.4536166666666666,
244,pilot,,black,Kareem,there.,,1,1,white,filler,,0,146,,,fancy restaurant,10,critical,15,[],list1,-1,,,-1,-1,,,,,,Chrome,Mac,800,1280,1.4536166666666666,
244,pilot,,none,Jermaine,&quot;Wow&quot;,,1,1,white,filler,,1,124,,,friend,11,filler,0,[],list1,-1,,,-1,-1,,,,,,Chrome,Mac,800,1280,1.4536166666666666,
244,pilot,,none,Jermaine,he,,1,1,white,filler,,1,159,,,friend,11,filler,1,[],list1,-1,,,-1,-1,,,,,,Chrome,Mac,800,1280,1.4536166666666666,
244,pilot,,none,Jermaine,"said,",,1,1,white,filler,,1,154,,,friend,11,filler,2,[],list1,-1,,,-1,-1,,,,,,Chrome,Mac,800,1280,1.4536166666666666,
244,pilot,,none,Jermaine,unable,,1,1,white,filler,,1,158,,,friend,11,filler,3,[],list1,-1,,,-1,-1,,,,,,Chrome,Mac,800,1280,1.4536166666666666,
244,pilot,,none,Jermaine,to,,1,1,white,filler,,1,163,,,friend,11,filler,4,[],list1,-1,,,-1,-1,,,,,,Chrome,Mac,800,1280,1.4536166666666666,
244,pilot,,none,Jermaine,believe,,1,1,white,filler,,1,148,,,friend,11,filler,5,[],list1,-1,,,-1,-1,,,,,,Chrome,Mac,800,1280,1.4536166666666666,
244,pilot,,none,Jermaine,it,,1,1,white,filler,,1,172,,,friend,11,filler,6,[],list1,-1,,,-1,-1,,,,,,Chrome,Mac,800,1280,1.4536166666666666,
244,pilot,,none,Jermaine,had,,1,1,white,filler,,1,157,,,friend,11,filler,7,[],list1,-1,,,-1,-1,,,,,,Chrome,Mac,800,1280,1.4536166666666666,
244,pilot,,none,Jermaine,been,,1,1,white,filler,,1,162,,,friend,11,filler,8,[],list1,-1,,,-1,-1,,,,,,Chrome,Mac,800,1280,1.4536166666666666,
244,pilot,,none,Jermaine,so,,1,1,white,filler,,1,158,,,friend,11,filler,9,[],list1,-1,,,-1,-1,,,,,,Chrome,Mac,800,1280,1.4536166666666666,
244,pilot,,none,Jermaine,long,,1,1,white,filler,,1,163,,,friend,11,filler,10,[],list1,-1,,,-1,-1,,,,,,Chrome,Mac,800,1280,1.4536166666666666,
244,pilot,,none,Jermaine,since,,1,1,white,filler,,1,157,,,friend,11,filler,11,[],list1,-1,,,-1,-1,,,,,,Chrome,Mac,800,1280,1.4536166666666666,
244,pilot,,none,Jermaine,he,,1,1,white,filler,,1,162,,,friend,11,filler,12,[],list1,-1,,,-1,-1,,,,,,Chrome,Mac,800,1280,1.4536166666666666,
244,pilot,,none,Jermaine,last,,1,1,white,filler,,1,182,,,friend,11,filler,13,[],list1,-1,,,-1,-1,,,,,,Chrome,Mac,800,1280,1.4536166666666666,
244,pilot,,none,Jermaine,talked,,1,1,white,filler,,1,259,,,friend,11,filler,14,[],list1,-1,,,-1,-1,,,,,,Chrome,Mac,800,1280,1.4536166666666666,
244,pilot,,none,Jermaine,to,,1,1,white,filler,,1,157,,,friend,11,filler,15,[],list1,-1,,,-1,-1,,,,,,Chrome,Mac,800,1280,1.4536166666666666,
244,pilot,,none,Jermaine,his,,1,1,white,filler,,1,162,,,friend,11,filler,16,[],list1,-1,,,-1,-1,,,,,,Chrome,Mac,800,1280,1.4536166666666666,
244,pilot,,none,Jermaine,friend.,,1,1,white,filler,,1,149,,,friend,11,filler,17,[],list1,-1,,,-1,-1,,,,,,Chrome,Mac,800,1280,1.4536166666666666,
244,pilot,,none,Deshawn,He,,1,1,black,filler,,1,140,,,neighbors,12,filler,0,[],list1,-1,,,-1,-1,,,,,,Chrome,Mac,800,1280,1.4536166666666666,
244,pilot,,none,Deshawn,slept,,1,1,black,filler,,1,139,,,neighbors,12,filler,1,[],list1,-1,,,-1,-1,,,,,,Chrome,Mac,800,1280,1.4536166666666666,
244,pilot,,none,Deshawn,badly,,1,1,black,filler,,1,182,,,neighbors,12,filler,2,[],list1,-1,,,-1,-1,,,,,,Chrome,Mac,800,1280,1.4536166666666666,
244,pilot,,none,Deshawn,"again,",,1,1,black,filler,,1,171,,,neighbors,12,filler,3,[],list1,-1,,,-1,-1,,,,,,Chrome,Mac,800,1280,1.4536166666666666,
244,pilot,,none,Deshawn,probably,,1,1,black,filler,,1,189,,,neighbors,12,filler,4,[],list1,-1,,,-1,-1,,,,,,Chrome,Mac,800,1280,1.4536166666666666,
244,pilot,,none,Deshawn,because,,1,1,black,filler,,1,155,,,neighbors,12,filler,5,[],list1,-1,,,-1,-1,,,,,,Chrome,Mac,800,1280,1.4536166666666666,
244,pilot,,none,Deshawn,of,,1,1,black,filler,,1,166,,,neighbors,12,filler,6,[],list1,-1,,,-1,-1,,,,,,Chrome,Mac,800,1280,1.4536166666666666,
244,pilot,,none,Deshawn,the,,1,1,black,filler,,1,185,,,neighbors,12,filler,7,[],list1,-1,,,-1,-1,,,,,,Chrome,Mac,800,1280,1.4536166666666666,
244,pilot,,none,Deshawn,noise,,1,1,black,filler,,1,166,,,neighbors,12,filler,8,[],list1,-1,,,-1,-1,,,,,,Chrome,Mac,800,1280,1.4536166666666666,
244,pilot,,none,Deshawn,that,,1,1,black,filler,,1,162,,,neighbors,12,filler,9,[],list1,-1,,,-1,-1,,,,,,Chrome,Mac,800,1280,1.4536166666666666,
244,pilot,,none,Deshawn,always,,1,1,black,filler,,1,166,,,neighbors,12,filler,10,[],list1,-1,,,-1,-1,,,,,,Chrome,Mac,800,1280,1.4536166666666666,
244,pilot,,none,Deshawn,came,,1,1,black,filler,,1,179,,,neighbors,12,filler,11,[],list1,-1,,,-1,-1,,,,,,Chrome,Mac,800,1280,1.4536166666666666,
244,pilot,,none,Deshawn,from,,1,1,black,filler,,1,182,,,neighbors,12,filler,12,[],list1,-1,,,-1,-1,,,,,,Chrome,Mac,800,1280,1.4536166666666666,
244,pilot,,none,Deshawn,his,,1,1,black,filler,,1,154,,,neighbors,12,filler,13,[],list1,-1,,,-1,-1,,,,,,Chrome,Mac,800,1280,1.4536166666666666,
244,pilot,,none,Deshawn,neighbors.,,1,1,black,filler,,1,157,,,neighbors,12,filler,14,[],list1,-1,,,-1,-1,,,,,,Chrome,Mac,800,1280,1.4536166666666666,
244,pilot,,none,Deandre,He,,1,1,white,filler,,1,144,,,gray car,13,filler,0,[],list1,-1,,,-1,-1,,,,,,Chrome,Mac,800,1280,1.4536166666666666,
244,pilot,,none,Deandre,hopped,,1,1,white,filler,,1,160,,,gray car,13,filler,1,[],list1,-1,,,-1,-1,,,,,,Chrome,Mac,800,1280,1.4536166666666666,
244,pilot,,none,Deandre,into,,1,1,white,filler,,1,141,,,gray car,13,filler,2,[],list1,-1,,,-1,-1,,,,,,Chrome,Mac,800,1280,1.4536166666666666,
244,pilot,,none,Deandre,his,,1,1,white,filler,,1,178,,,gray car,13,filler,3,[],list1,-1,,,-1,-1,,,,,,Chrome,Mac,800,1280,1.4536166666666666,
244,pilot,,none,Deandre,"car,",,1,1,white,filler,,1,166,,,gray car,13,filler,4,[],list1,-1,,,-1,-1,,,,,,Chrome,Mac,800,1280,1.4536166666666666,
244,pilot,,none,Deandre,a,,1,1,white,filler,,1,162,,,gray car,13,filler,5,[],list1,-1,,,-1,-1,,,,,,Chrome,Mac,800,1280,1.4536166666666666,
244,pilot,,none,Deandre,gray,,1,1,white,filler,,1,182,,,gray car,13,filler,6,[],list1,-1,,,-1,-1,,,,,,Chrome,Mac,800,1280,1.4536166666666666,
244,pilot,,none,Deandre,"Honda,",,1,1,white,filler,,1,163,,,gray car,13,filler,7,[],list1,-1,,,-1,-1,,,,,,Chrome,Mac,800,1280,1.4536166666666666,
244,pilot,,none,Deandre,to,,1,1,white,filler,,1,173,,,gray car,13,filler,8,[],list1,-1,,,-1,-1,,,,,,Chrome,Mac,800,1280,1.4536166666666666,
244,pilot,,none,Deandre,go,,1,1,white,filler,,1,171,,,gray car,13,filler,9,[],list1,-1,,,-1,-1,,,,,,Chrome,Mac,800,1280,1.4536166666666666,
244,pilot,,none,Deandre,meet,,1,1,white,filler,,1,173,,,gray car,13,filler,10,[],list1,-1,,,-1,-1,,,,,,Chrome,Mac,800,1280,1.4536166666666666,
244,pilot,,none,Deandre,his,,1,1,white,filler,,1,163,,,gray car,13,filler,11,[],list1,-1,,,-1,-1,,,,,,Chrome,Mac,800,1280,1.4536166666666666,
244,pilot,,none,Deandre,friends.,,1,1,white,filler,,1,157,,,gray car,13,filler,12,[],list1,-1,,,-1,-1,,,,,,Chrome,Mac,800,1280,1.4536166666666666,
244,pilot,,white,Hakeem,To,,1,1,white,filler,,1,148,,,genre,14,critical,0,[],list1,-1,,,-1,-1,,,,,,Chrome,Mac,800,1280,1.4536166666666666,
244,pilot,,white,Hakeem,really,,1,1,white,filler,,1,172,,,genre,14,critical,1,[],list1,-1,,,-1,-1,,,,,,Chrome,Mac,800,1280,1.4536166666666666,
244,pilot,,white,Hakeem,relax,,1,1,white,filler,,1,159,,,genre,14,critical,2,[],list1,-1,,,-1,-1,,,,,,Chrome,Mac,800,1280,1.4536166666666666,
244,pilot,,white,Hakeem,"though,",,1,1,white,filler,,1,176,,,genre,14,critical,3,[],list1,-1,,,-1,-1,,,,,,Chrome,Mac,800,1280,1.4536166666666666,
244,pilot,,white,Hakeem,he,,1,1,white,filler,,1,158,,,genre,14,critical,4,[],list1,-1,,,-1,-1,,,,,,Chrome,Mac,800,1280,1.4536166666666666,
244,pilot,,white,Hakeem,pulled,,1,1,white,filler,,1,171,,,genre,14,critical,5,[],list1,-1,,,-1,-1,,,,,,Chrome,Mac,800,1280,1.4536166666666666,
244,pilot,,white,Hakeem,his,,1,1,white,filler,,1,157,,,genre,14,critical,6,[],list1,-1,,,-1,-1,,,,,,Chrome,Mac,800,1280,1.4536166666666666,
244,pilot,,white,Hakeem,phone,,1,1,white,filler,,1,170,,,genre,14,critical,7,[],list1,-1,,,-1,-1,,,,,,Chrome,Mac,800,1280,1.4536166666666666,
244,pilot,,white,Hakeem,out,,1,1,white,filler,,1,158,,,genre,14,critical,8,[],list1,-1,,,-1,-1,,,,,,Chrome,Mac,800,1280,1.4536166666666666,
244,pilot,,white,Hakeem,and,,1,1,white,filler,,1,171,,,genre,14,critical,9,[],list1,-1,,,-1,-1,,,,,,Chrome,Mac,800,1280,1.4536166666666666,
244,pilot,,white,Hakeem,started,,1,1,white,filler,,1,173,,,genre,14,critical,10,[],list1,-1,,,-1,-1,,,,,,Chrome,Mac,800,1280,1.4536166666666666,
244,pilot,,white,Hakeem,playing,,1,1,white,filler,,1,171,,,genre,14,critical,11,[],list1,-1,,,-1,-1,,,,,,Chrome,Mac,800,1280,1.4536166666666666,
244,pilot,,white,Hakeem,some,,1,1,white,filler,,1,165,,,genre,14,critical,12,[],list1,-1,,,-1,-1,,,,,,Chrome,Mac,800,1280,1.4536166666666666,
244,pilot,,white,Hakeem,indie,,1,1,white,filler,,1,187,,,genre,14,critical,13,[],list1,-1,,,-1,-1,,,,,,Chrome,Mac,800,1280,1.4536166666666666,
244,pilot,,white,Hakeem,"folk,",,1,1,white,filler,,1,186,,,genre,14,critical,14,[],list1,-1,,,-1,-1,,,,,,Chrome,Mac,800,1280,1.4536166666666666,
244,pilot,,white,Hakeem,his,,1,1,white,filler,,1,174,,,genre,14,critical,15,[],list1,-1,,,-1,-1,,,,,,Chrome,Mac,800,1280,1.4536166666666666,
244,pilot,,white,Hakeem,favorite,,1,1,white,filler,,1,173,,,genre,14,critical,16,[],list1,-1,,,-1,-1,,,,,,Chrome,Mac,800,1280,1.4536166666666666,
244,pilot,,white,Hakeem,kind,,1,1,white,filler,,1,179,,,genre,14,critical,17,[],list1,-1,,,-1,-1,,,,,,Chrome,Mac,800,1280,1.4536166666666666,
244,pilot,,white,Hakeem,of,,1,1,white,filler,,1,165,,,genre,14,critical,18,[],list1,-1,,,-1,-1,,,,,,Chrome,Mac,800,1280,1.4536166666666666,
244,pilot,,white,Hakeem,music.,,1,1,white,filler,,1,163,,,genre,14,critical,19,[],list1,-1,,,-1,-1,,,,,,Chrome,Mac,800,1280,1.4536166666666666,
244,pilot,,none,Jamal,&quot;Sarah!,,1,1,black,filler,,1,137,,,sister,15,filler,0,[],list1,-1,,,-1,-1,,,,,,Chrome,Mac,800,1280,1.4536166666666666,
244,pilot,,none,Jamal,I&rsquo;m,,1,1,black,filler,,1,166,,,sister,15,filler,1,[],list1,-1,,,-1,-1,,,,,,Chrome,Mac,800,1280,1.4536166666666666,
244,pilot,,none,Jamal,sorry,,1,1,black,filler,,1,169,,,sister,15,filler,2,[],list1,-1,,,-1,-1,,,,,,Chrome,Mac,800,1280,1.4536166666666666,
244,pilot,,none,Jamal,for,,1,1,black,filler,,1,174,,,sister,15,filler,3,[],list1,-1,,,-1,-1,,,,,,Chrome,Mac,800,1280,1.4536166666666666,
244,pilot,,none,Jamal,missing,,1,1,black,filler,,1,179,,,sister,15,filler,4,[],list1,-1,,,-1,-1,,,,,,Chrome,Mac,800,1280,1.4536166666666666,
244,pilot,,none,Jamal,your,,1,1,black,filler,,1,175,,,sister,15,filler,5,[],list1,-1,,,-1,-1,,,,,,Chrome,Mac,800,1280,1.4536166666666666,
244,pilot,,none,Jamal,messages!&quot;,,1,1,black,filler,,1,169,,,sister,15,filler,6,[],list1,-1,,,-1,-1,,,,,,Chrome,Mac,800,1280,1.4536166666666666,
244,pilot,,none,Jamal,he,,1,1,black,filler,,1,173,,,sister,15,filler,7,[],list1,-1,,,-1,-1,,,,,,Chrome,Mac,800,1280,1.4536166666666666,
244,pilot,,none,Jamal,"said,",,1,1,black,filler,,1,171,,,sister,15,filler,8,[],list1,-1,,,-1,-1,,,,,,Chrome,Mac,800,1280,1.4536166666666666,
244,pilot,,none,Jamal,genuinely,,1,1,black,filler,,1,157,,,sister,15,filler,9,[],list1,-1,,,-1,-1,,,,,,Chrome,Mac,800,1280,1.4536166666666666,
244,pilot,,none,Jamal,feeling,,1,1,black,filler,,1,179,,,sister,15,filler,10,[],list1,-1,,,-1,-1,,,,,,Chrome,Mac,800,1280,1.4536166666666666,
244,pilot,,none,Jamal,bad.,,1,1,black,filler,,1,238,,,sister,15,filler,11,[],list1,-1,,,-1,-1,,,,,,Chrome,Mac,800,1280,1.4536166666666666,
244,pilot,,none,Tyrone,He,,1,1,white,filler,,1,141,,,dentist,16,filler,0,[],list1,-1,,,-1,-1,,,,,,Chrome,Mac,800,1280,1.4536166666666666,
244,pilot,,none,Tyrone,remembered,,1,1,white,filler,,1,179,,,dentist,16,filler,1,[],list1,-1,,,-1,-1,,,,,,Chrome,Mac,800,1280,1.4536166666666666,
244,pilot,,none,Tyrone,he,,1,1,white,filler,,1,174,,,dentist,16,filler,2,[],list1,-1,,,-1,-1,,,,,,Chrome,Mac,800,1280,1.4536166666666666,
244,pilot,,none,Tyrone,had,,1,1,white,filler,,1,178,,,dentist,16,filler,3,[],list1,-1,,,-1,-1,,,,,,Chrome,Mac,800,1280,1.4536166666666666,
244,pilot,,none,Tyrone,a,,1,1,white,filler,,1,174,,,dentist,16,filler,4,[],list1,-1,,,-1,-1,,,,,,Chrome,Mac,800,1280,1.4536166666666666,
244,pilot,,none,Tyrone,dentist,,1,1,white,filler,,1,178,,,dentist,16,filler,5,[],list1,-1,,,-1,-1,,,,,,Chrome,Mac,800,1280,1.4536166666666666,
244,pilot,,none,Tyrone,appointment,,1,1,white,filler,,1,166,,,dentist,16,filler,6,[],list1,-1,,,-1,-1,,,,,,Chrome,Mac,800,1280,1.4536166666666666,
244,pilot,,none,Tyrone,"today,",,1,1,white,filler,,1,186,,,dentist,16,filler,7,[],list1,-1,,,-1,-1,,,,,,Chrome,Mac,800,1280,1.4536166666666666,
244,pilot,,none,Tyrone,which,,1,1,white,filler,,1,165,,,dentist,16,filler,8,[],list1,-1,,,-1,-1,,,,,,Chrome,Mac,800,1280,1.4536166666666666,
244,pilot,,none,Tyrone,he,,1,1,white,filler,,1,171,,,dentist,16,filler,9,[],list1,-1,,,-1,-1,,,,,,Chrome,Mac,800,1280,1.4536166666666666,
244,pilot,,none,Tyrone,was,,1,1,white,filler,,1,165,,,dentist,16,filler,10,[],list1,-1,,,-1,-1,,,,,,Chrome,Mac,800,1280,1.4536166666666666,
244,pilot,,none,Tyrone,dreading.,,1,1,white,filler,,1,187,,,dentist,16,filler,11,[],list1,-1,,,-1,-1,,,,,,Chrome,Mac,800,1280,1.4536166666666666,
244,pilot,,none,Deion,&quot;Hopefully,,1,1,white,filler,,1,154,,,debate,17,filler,0,[],list1,-1,,,-1,-1,,,,,,Chrome,Mac,800,1280,1.4536166666666666,
244,pilot,,none,Deion,my,,1,1,white,filler,,1,164,,,debate,17,filler,1,[],list1,-1,,,-1,-1,,,,,,Chrome,Mac,800,1280,1.4536166666666666,
244,pilot,,none,Deion,experience,,1,1,white,filler,,1,148,,,debate,17,filler,2,[],list1,-1,,,-1,-1,,,,,,Chrome,Mac,800,1280,1.4536166666666666,
244,pilot,,none,Deion,on,,1,1,white,filler,,1,149,,,debate,17,filler,3,[],list1,-1,,,-1,-1,,,,,,Chrome,Mac,800,1280,1.4536166666666666,
244,pilot,,none,Deion,the,,1,1,white,filler,,1,171,,,debate,17,filler,4,[],list1,-1,,,-1,-1,,,,,,Chrome,Mac,800,1280,1.4536166666666666,
244,pilot,,none,Deion,debate,,1,1,white,filler,,1,164,,,debate,17,filler,5,[],list1,-1,,,-1,-1,,,,,,Chrome,Mac,800,1280,1.4536166666666666,
244,pilot,,none,Deion,team,,1,1,white,filler,,1,181,,,debate,17,filler,6,[],list1,-1,,,-1,-1,,,,,,Chrome,Mac,800,1280,1.4536166666666666,
244,pilot,,none,Deion,in,,1,1,white,filler,,1,181,,,debate,17,filler,7,[],list1,-1,,,-1,-1,,,,,,Chrome,Mac,800,1280,1.4536166666666666,
244,pilot,,none,Deion,high,,1,1,white,filler,,1,178,,,debate,17,filler,8,[],list1,-1,,,-1,-1,,,,,,Chrome,Mac,800,1280,1.4536166666666666,
244,pilot,,none,Deion,school,,1,1,white,filler,,1,166,,,debate,17,filler,9,[],list1,-1,,,-1,-1,,,,,,Chrome,Mac,800,1280,1.4536166666666666,
244,pilot,,none,Deion,will,,1,1,white,filler,,1,178,,,debate,17,filler,10,[],list1,-1,,,-1,-1,,,,,,Chrome,Mac,800,1280,1.4536166666666666,
244,pilot,,none,Deion,"help,&quot;",,1,1,white,filler,,1,174,,,debate,17,filler,11,[],list1,-1,,,-1,-1,,,,,,Chrome,Mac,800,1280,1.4536166666666666,
244,pilot,,none,Deion,Logan,,1,1,white,name,,1,186,,,debate,17,filler,12,[],list1,-1,,,-1,-1,,,,,,Chrome,Mac,800,1280,1.4536166666666666,
244,pilot,,none,Deion,thought.,,1,1,white,filler,,1,166,,,debate,17,filler,13,[],list1,-1,,,-1,-1,,,,,,Chrome,Mac,800,1280,1.4536166666666666,
