workerid,proliferate.condition,audio,bias,first,form,image,lbr_after,lbr_before,nameCategory,region,response,response_correct,rt,slide_number,slide_type,trial_id,trial_no,type,word_idx,error
247,pilot,,,,,Linda,,,,,"[0, 'Linda']",,,1,bot_check,,,,,
247,pilot,,,Paul,He,,,,,filler,,1,703,,,running,0,practice,0,
247,pilot,,,Paul,decided,,,,,filler,,1,208,,,running,0,practice,1,
247,pilot,,,Paul,to,,,,,filler,,1,368,,,running,0,practice,2,
247,pilot,,,Paul,take,,,,,filler,,1,184,,,running,0,practice,3,
247,pilot,,,Paul,advantage,,,,,filler,,1,704,,,running,0,practice,4,
247,pilot,,,Paul,of,,,,,filler,,1,248,,,running,0,practice,5,
247,pilot,,,Paul,the,,,,,filler,,1,400,,,running,0,practice,6,
247,pilot,,,Paul,weather,,,,,filler,,1,224,,,running,0,practice,7,
247,pilot,,,Paul,and,,,,,filler,,1,280,,,running,0,practice,8,
247,pilot,,,Paul,go,,,,,filler,,1,296,,,running,0,practice,9,
247,pilot,,,Paul,for,,,,,filler,,1,233,,,running,0,practice,10,
247,pilot,,,Paul,a,,,,,filler,,1,239,,,running,0,practice,11,
247,pilot,,,Paul,run,,,,,filler,,1,360,,,running,0,practice,12,
247,pilot,,,Paul,today.,,,,,filler,,1,304,,,running,0,practice,13,
247,pilot,,,Paul,He,,,,,filler,,1,392,,,groceries,0,practice,0,
247,pilot,,,Paul,really,,,,,filler,,1,448,,,groceries,0,practice,1,
247,pilot,,,Paul,wanted,,,,,filler,,1,544,,,groceries,0,practice,2,
247,pilot,,,Paul,to,,,,,filler,,1,384,,,groceries,0,practice,3,
247,pilot,,,Paul,pick,,,,,filler,,1,472,,,groceries,0,practice,4,
247,pilot,,,Paul,up,,,,,filler,,1,416,,,groceries,0,practice,5,
247,pilot,,,Paul,some,,,,,filler,,1,360,,,groceries,0,practice,6,
247,pilot,,,Paul,eggs,,,,,filler,,1,264,,,groceries,0,practice,7,
247,pilot,,,Paul,and,,,,,filler,,1,400,,,groceries,0,practice,8,
247,pilot,,,Paul,orange,,,,,filler,,1,264,,,groceries,0,practice,9,
247,pilot,,,Paul,juice,,,,,filler,,1,416,,,groceries,0,practice,10,
247,pilot,,,Paul,for,,,,,filler,,1,944,,,groceries,0,practice,11,
247,pilot,,,Paul,breakfast.,,,,,filler,,1,464,,,groceries,0,practice,12,
247,pilot,,,Paul,This,,,,,filler,,1,424,,,computer,0,practice,0,
247,pilot,,,Paul,was,,,,,filler,,1,416,,,computer,0,practice,1,
247,pilot,,,Paul,the,,,,,filler,,1,1224,,,computer,0,practice,2,
247,pilot,,,Paul,worst,,,,,filler,,1,408,,,computer,0,practice,3,
247,pilot,,,Paul,time,,,,,filler,,1,344,,,computer,0,practice,4,
247,pilot,,,Paul,for,,,,,filler,,1,288,,,computer,0,practice,5,
247,pilot,,,Paul,it,,,,,filler,,1,224,,,computer,0,practice,6,
247,pilot,,,Paul,to,,,,,filler,,1,672,,,computer,0,practice,7,
247,pilot,,,Paul,break,,,,,filler,,1,384,,,computer,0,practice,8,
247,pilot,,,Paul,"down,",,,,,filler,,1,232,,,computer,0,practice,9,
247,pilot,,,Paul,as,,,,,filler,,1,352,,,computer,0,practice,10,
247,pilot,,,Paul,David,,,,,name,,1,392,,,computer,0,practice,11,
247,pilot,,,Paul,had,,,,,filler,,1,256,,,computer,0,practice,12,
247,pilot,,,Paul,a,,,,,filler,,1,296,,,computer,0,practice,13,
247,pilot,,,Paul,lot,,,,,filler,,1,288,,,computer,0,practice,14,
247,pilot,,,Paul,of,,,,,filler,,1,272,,,computer,0,practice,15,
247,pilot,,,Paul,work,,,,,filler,,1,256,,,computer,0,practice,16,
247,pilot,,,Paul,to,,,,,filler,,1,424,,,computer,0,practice,17,
247,pilot,,,Paul,do,,,,,filler,,1,240,,,computer,0,practice,18,
247,pilot,,,Paul,the,,,,,filler,,1,360,,,computer,0,practice,19,
247,pilot,,,Paul,next,,,,,filler,,1,352,,,computer,0,practice,20,
247,pilot,,,Paul,day.,,,,,filler,,1,344,,,computer,0,practice,21,
247,pilot,,,Paul,Unfortunately,,,,,filler,,1,536,,,shaving,0,practice,0,
247,pilot,,,Paul,he,,,,,filler,,1,408,,,shaving,0,practice,1,
247,pilot,,,Paul,was,,,,,filler,,1,368,,,shaving,0,practice,2,
247,pilot,,,Paul,out,,,,,filler,,1,456,,,shaving,0,practice,3,
247,pilot,,,Paul,of,,,,,filler,,1,440,,,shaving,0,practice,4,
247,pilot,,,Paul,shaving,,,,,filler,,1,480,,,shaving,0,practice,5,
247,pilot,,,Paul,"cream,",,,,,filler,,1,336,,,shaving,0,practice,6,
247,pilot,,,Paul,so,,,,,filler,,1,304,,,shaving,0,practice,7,
247,pilot,,,Paul,he,,,,,filler,,1,248,,,shaving,0,practice,8,
247,pilot,,,Paul,had,,,,,filler,,1,408,,,shaving,0,practice,9,
247,pilot,,,Paul,to,,,,,filler,,1,208,,,shaving,0,practice,10,
247,pilot,,,Paul,run,,,,,filler,,1,264,,,shaving,0,practice,11,
247,pilot,,,Paul,to,,,,,filler,,1,336,,,shaving,0,practice,12,
247,pilot,,,Paul,the,,,,,filler,,1,312,,,shaving,0,practice,13,
247,pilot,,,Paul,store,,,,,filler,,1,296,,,shaving,0,practice,14,
247,pilot,,,Paul,before,,,,,filler,,1,360,,,shaving,0,practice,15,
247,pilot,,,Paul,shaving.,,,,,filler,,1,424,,,shaving,0,practice,16,
247,pilot,,white,Brad,He,,1,1,white,filler,,1,1120,,,performing,0,critical,0,
247,pilot,,white,Brad,knew,,1,1,white,filler,,1,440,,,performing,0,critical,1,
247,pilot,,white,Brad,that,,1,1,white,filler,,1,352,,,performing,0,critical,2,
247,pilot,,white,Brad,no,,1,1,white,filler,,1,208,,,performing,0,critical,3,
247,pilot,,white,Brad,matter,,1,1,white,filler,,1,488,,,performing,0,critical,4,
247,pilot,,white,Brad,how,,1,1,white,filler,,1,224,,,performing,0,critical,5,
247,pilot,,white,Brad,many,,1,1,white,filler,,1,376,,,performing,0,critical,6,
247,pilot,,white,Brad,times,,1,1,white,filler,,1,232,,,performing,0,critical,7,
247,pilot,,white,Brad,he,,1,1,white,filler,,1,336,,,performing,0,critical,8,
247,pilot,,white,Brad,got,,1,1,white,filler,,1,376,,,performing,0,critical,9,
247,pilot,,white,Brad,on,,1,1,white,filler,,1,344,,,performing,0,critical,10,
247,pilot,,white,Brad,"stage,",,1,1,white,filler,,1,328,,,performing,0,critical,11,
247,pilot,,white,Brad,he,,1,1,white,filler,,1,352,,,performing,0,critical,12,
247,pilot,,white,Brad,would,,1,1,white,filler,,1,376,,,performing,0,critical,13,
247,pilot,,white,Brad,always,,1,1,white,filler,,1,288,,,performing,0,critical,14,
247,pilot,,white,Brad,be,,1,1,white,filler,,1,416,,,performing,0,critical,15,
247,pilot,,white,Brad,nervous,,1,1,white,filler,,1,424,,,performing,0,critical,16,
247,pilot,,white,Brad,to,,1,1,white,filler,,1,224,,,performing,0,critical,17,
247,pilot,,white,Brad,play,,1,1,white,filler,,1,328,,,performing,0,critical,18,
247,pilot,,white,Brad,the,,1,1,white,filler,,1,280,,,performing,0,critical,19,
247,pilot,,white,Brad,tuba,,1,1,white,filler,,1,264,,,performing,0,critical,20,
247,pilot,,white,Brad,in,,1,1,white,filler,,1,328,,,performing,0,critical,21,
247,pilot,,white,Brad,front,,1,1,white,filler,,1,304,,,performing,0,critical,22,
247,pilot,,white,Brad,of,,1,1,white,filler,,1,256,,,performing,0,critical,23,
247,pilot,,white,Brad,an,,1,1,white,filler,,1,264,,,performing,0,critical,24,
247,pilot,,white,Brad,audience.,,1,1,white,filler,,1,464,,,performing,0,critical,25,
247,pilot,,none,Tyree,But,,1,1,black,filler,,1,416,,,blue car,1,filler,0,
247,pilot,,none,Tyree,as,,1,1,black,filler,,1,392,,,blue car,1,filler,1,
247,pilot,,none,Tyree,Tyree,,1,1,black,name,,1,224,,,blue car,1,filler,2,
247,pilot,,none,Tyree,checked,,1,1,black,filler,,1,392,,,blue car,1,filler,3,
247,pilot,,none,Tyree,"around,",,1,1,black,filler,,1,752,,,blue car,1,filler,4,
247,pilot,,none,Tyree,he,,1,1,black,filler,,1,392,,,blue car,1,filler,5,
247,pilot,,none,Tyree,realized,,1,1,black,filler,,1,408,,,blue car,1,filler,6,
247,pilot,,none,Tyree,that,,1,1,black,filler,,1,392,,,blue car,1,filler,7,
247,pilot,,none,Tyree,the,,1,1,black,filler,,1,368,,,blue car,1,filler,8,
247,pilot,,none,Tyree,only,,1,1,black,filler,,1,504,,,blue car,1,filler,9,
247,pilot,,none,Tyree,thing,,1,1,black,filler,,1,432,,,blue car,1,filler,10,
247,pilot,,none,Tyree,missing,,1,1,black,filler,,1,432,,,blue car,1,filler,11,
247,pilot,,none,Tyree,was,,1,1,black,filler,,1,376,,,blue car,1,filler,12,
247,pilot,,none,Tyree,the,,1,1,black,filler,,1,272,,,blue car,1,filler,13,
247,pilot,,none,Tyree,keys,,1,1,black,filler,,1,424,,,blue car,1,filler,14,
247,pilot,,none,Tyree,to,,1,1,black,filler,,1,344,,,blue car,1,filler,15,
247,pilot,,none,Tyree,his,,1,1,black,filler,,1,184,,,blue car,1,filler,16,
247,pilot,,none,Tyree,"car,",,1,1,black,filler,,1,384,,,blue car,1,filler,17,
247,pilot,,none,Tyree,which,,1,1,black,filler,,1,336,,,blue car,1,filler,18,
247,pilot,,none,Tyree,was,,1,1,black,filler,,1,280,,,blue car,1,filler,19,
247,pilot,,none,Tyree,a,,1,1,black,filler,,1,248,,,blue car,1,filler,20,
247,pilot,,none,Tyree,blue,,1,1,black,filler,,1,352,,,blue car,1,filler,21,
247,pilot,,none,Tyree,Toyota.,,1,1,black,filler,,1,440,,,blue car,1,filler,22,
247,pilot,,none,Jack,He,,1,1,white,filler,,1,432,,,gray car,2,filler,0,
247,pilot,,none,Jack,hopped,,1,1,white,filler,,1,472,,,gray car,2,filler,1,
247,pilot,,none,Jack,into,,1,1,white,filler,,1,432,,,gray car,2,filler,2,
247,pilot,,none,Jack,his,,1,1,white,filler,,1,224,,,gray car,2,filler,3,
247,pilot,,none,Jack,"car,",,1,1,white,filler,,1,368,,,gray car,2,filler,4,
247,pilot,,none,Jack,a,,1,1,white,filler,,1,408,,,gray car,2,filler,5,
247,pilot,,none,Jack,gray,,1,1,white,filler,,1,488,,,gray car,2,filler,6,
247,pilot,,none,Jack,"Honda,",,1,1,white,filler,,1,216,,,gray car,2,filler,7,
247,pilot,,none,Jack,to,,1,1,white,filler,,1,328,,,gray car,2,filler,8,
247,pilot,,none,Jack,go,,1,1,white,filler,,1,224,,,gray car,2,filler,9,
247,pilot,,none,Jack,meet,,1,1,white,filler,,1,256,,,gray car,2,filler,10,
247,pilot,,none,Jack,his,,1,1,white,filler,,1,224,,,gray car,2,filler,11,
247,pilot,,none,Jack,friends.,,1,1,white,filler,,1,416,,,gray car,2,filler,12,
247,pilot,,black,Dustin,&quot;I,,1,1,white,filler,,1,448,,,food,3,critical,0,
247,pilot,,black,Dustin,could,,1,1,white,filler,,1,408,,,food,3,critical,1,
247,pilot,,black,Dustin,sure,,1,1,white,filler,,1,288,,,food,3,critical,2,
247,pilot,,black,Dustin,go,,1,1,white,filler,,1,496,,,food,3,critical,3,
247,pilot,,black,Dustin,for,,1,1,white,filler,,1,248,,,food,3,critical,4,
247,pilot,,black,Dustin,some,,1,1,white,filler,,1,248,,,food,3,critical,5,
247,pilot,,black,Dustin,Popeye&rsquo;s,,1,1,white,filler,,1,416,,,food,3,critical,6,
247,pilot,,black,Dustin,right,,1,1,white,filler,,1,296,,,food,3,critical,7,
247,pilot,,black,Dustin,"now,&quot;",,1,1,white,filler,,1,248,,,food,3,critical,8,
247,pilot,,black,Dustin,he,,1,1,white,filler,,1,328,,,food,3,critical,9,
247,pilot,,black,Dustin,thought.,,1,1,white,filler,,1,456,,,food,3,critical,10,
247,pilot,,white,Brett,He,,1,1,white,filler,,1,416,,,lesson,4,critical,0,
247,pilot,,white,Brett,rushed,,1,1,white,filler,,1,392,,,lesson,4,critical,1,
247,pilot,,white,Brett,out,,1,1,white,filler,,1,408,,,lesson,4,critical,2,
247,pilot,,white,Brett,the,,1,1,white,filler,,1,384,,,lesson,4,critical,3,
247,pilot,,white,Brett,door,,1,1,white,filler,,1,288,,,lesson,4,critical,4,
247,pilot,,white,Brett,to,,1,1,white,filler,,1,352,,,lesson,4,critical,5,
247,pilot,,white,Brett,go,,1,1,white,filler,,1,248,,,lesson,4,critical,6,
247,pilot,,white,Brett,pick,,1,1,white,filler,,1,224,,,lesson,4,critical,7,
247,pilot,,white,Brett,up,,1,1,white,filler,,1,368,,,lesson,4,critical,8,
247,pilot,,white,Brett,his,,1,1,white,filler,,1,384,,,lesson,4,critical,9,
247,pilot,,white,Brett,little,,1,1,white,filler,,1,240,,,lesson,4,critical,10,
247,pilot,,white,Brett,brother,,1,1,white,filler,,1,344,,,lesson,4,critical,11,
247,pilot,,white,Brett,from,,1,1,white,filler,,1,248,,,lesson,4,critical,12,
247,pilot,,white,Brett,his,,1,1,white,filler,,1,296,,,lesson,4,critical,13,
247,pilot,,white,Brett,tennis,,1,1,white,filler,,1,256,,,lesson,4,critical,14,
247,pilot,,white,Brett,lesson.,,1,1,white,filler,,1,320,,,lesson,4,critical,15,
247,pilot,,none,Rasheed,&quot;Sarah!,,1,1,black,filler,,1,216,,,sister,5,filler,0,
247,pilot,,none,Rasheed,I&rsquo;m,,1,1,black,filler,,1,800,,,sister,5,filler,1,
247,pilot,,none,Rasheed,sorry,,1,1,black,filler,,1,280,,,sister,5,filler,2,
247,pilot,,none,Rasheed,for,,1,1,black,filler,,1,264,,,sister,5,filler,3,
247,pilot,,none,Rasheed,missing,,1,1,black,filler,,1,400,,,sister,5,filler,4,
247,pilot,,none,Rasheed,your,,1,1,black,filler,,1,376,,,sister,5,filler,5,
247,pilot,,none,Rasheed,messages!&quot;,,1,1,black,filler,,1,232,,,sister,5,filler,6,
247,pilot,,none,Rasheed,he,,1,1,black,filler,,1,384,,,sister,5,filler,7,
247,pilot,,none,Rasheed,"said,",,1,1,black,filler,,1,224,,,sister,5,filler,8,
247,pilot,,none,Rasheed,genuinely,,1,1,black,filler,,1,256,,,sister,5,filler,9,
247,pilot,,none,Rasheed,feeling,,1,1,black,filler,,1,312,,,sister,5,filler,10,
247,pilot,,none,Rasheed,bad.,,1,1,black,filler,,1,296,,,sister,5,filler,11,
247,pilot,,none,Lamont,He,,1,1,black,filler,,1,392,,,dentist,6,filler,0,
247,pilot,,none,Lamont,remembered,,1,1,black,filler,,1,392,,,dentist,6,filler,1,
247,pilot,,none,Lamont,he,,1,1,black,filler,,1,288,,,dentist,6,filler,2,
247,pilot,,none,Lamont,had,,1,1,black,filler,,1,240,,,dentist,6,filler,3,
247,pilot,,none,Lamont,a,,1,1,black,filler,,1,248,,,dentist,6,filler,4,
247,pilot,,none,Lamont,dentist,,1,1,black,filler,,1,352,,,dentist,6,filler,5,
247,pilot,,none,Lamont,appointment,,1,1,black,filler,,1,304,,,dentist,6,filler,6,
247,pilot,,none,Lamont,"today,",,1,1,black,filler,,1,272,,,dentist,6,filler,7,
247,pilot,,none,Lamont,which,,1,1,black,filler,,1,312,,,dentist,6,filler,8,
247,pilot,,none,Lamont,he,,1,1,black,filler,,1,248,,,dentist,6,filler,9,
247,pilot,,none,Lamont,was,,1,1,black,filler,,1,232,,,dentist,6,filler,10,
247,pilot,,none,Lamont,dreading.,,1,1,black,filler,,1,200,,,dentist,6,filler,11,
247,pilot,,black,Lamar,He,,1,1,black,filler,,1,216,,,lazy day,7,critical,0,
247,pilot,,black,Lamar,was,,1,1,black,filler,,1,248,,,lazy day,7,critical,1,
247,pilot,,black,Lamar,looking,,1,1,black,filler,,1,320,,,lazy day,7,critical,2,
247,pilot,,black,Lamar,forward,,1,1,black,filler,,1,224,,,lazy day,7,critical,3,
247,pilot,,black,Lamar,to,,1,1,black,filler,,1,272,,,lazy day,7,critical,4,
247,pilot,,black,Lamar,having,,1,1,black,filler,,1,216,,,lazy day,7,critical,5,
247,pilot,,black,Lamar,the,,1,1,black,filler,,1,200,,,lazy day,7,critical,6,
247,pilot,,black,Lamar,time,,1,1,black,filler,,1,312,,,lazy day,7,critical,7,
247,pilot,,black,Lamar,to,,1,1,black,filler,,1,304,,,lazy day,7,critical,8,
247,pilot,,black,Lamar,rest,,1,1,black,filler,,1,640,,,lazy day,7,critical,9,
247,pilot,,black,Lamar,a,,1,1,black,filler,,1,216,,,lazy day,7,critical,10,
247,pilot,,black,Lamar,lot,,1,1,black,filler,,1,216,,,lazy day,7,critical,11,
247,pilot,,black,Lamar,"today,",,1,1,black,filler,,1,224,,,lazy day,7,critical,12,
247,pilot,,black,Lamar,which,,1,1,black,filler,,1,232,,,lazy day,7,critical,13,
247,pilot,,black,Lamar,he,,1,1,black,filler,,1,288,,,lazy day,7,critical,14,
247,pilot,,black,Lamar,hadn't,,1,1,black,filler,,1,280,,,lazy day,7,critical,15,
247,pilot,,black,Lamar,had,,1,1,black,filler,,1,304,,,lazy day,7,critical,16,
247,pilot,,black,Lamar,the,,1,1,black,filler,,1,200,,,lazy day,7,critical,17,
247,pilot,,black,Lamar,time,,1,1,black,filler,,1,192,,,lazy day,7,critical,18,
247,pilot,,black,Lamar,to,,1,1,black,filler,,1,224,,,lazy day,7,critical,19,
247,pilot,,black,Lamar,in,,1,1,black,filler,,1,248,,,lazy day,7,critical,20,
247,pilot,,black,Lamar,a,,1,1,black,filler,,1,240,,,lazy day,7,critical,21,
247,pilot,,black,Lamar,while.,,1,1,black,filler,,1,200,,,lazy day,7,critical,22,
247,pilot,,white,Jamal,He,,1,1,black,filler,,1,368,,,fancy restaurant,8,critical,0,
247,pilot,,white,Jamal,had,,1,1,black,filler,,1,320,,,fancy restaurant,8,critical,1,
247,pilot,,white,Jamal,made,,1,1,black,filler,,1,256,,,fancy restaurant,8,critical,2,
247,pilot,,white,Jamal,a,,1,1,black,filler,,1,208,,,fancy restaurant,8,critical,3,
247,pilot,,white,Jamal,reservation,,1,1,black,filler,,1,320,,,fancy restaurant,8,critical,4,
247,pilot,,white,Jamal,at,,1,1,black,filler,,1,320,,,fancy restaurant,8,critical,5,
247,pilot,,white,Jamal,Olive,,1,1,black,filler,,1,216,,,fancy restaurant,8,critical,6,
247,pilot,,white,Jamal,"Garden,",,1,1,black,filler,,1,232,,,fancy restaurant,8,critical,7,
247,pilot,,white,Jamal,and,,1,1,black,filler,,1,240,,,fancy restaurant,8,critical,8,
247,pilot,,white,Jamal,was,,1,1,black,filler,,1,224,,,fancy restaurant,8,critical,9,
247,pilot,,white,Jamal,looking,,1,1,black,filler,,1,256,,,fancy restaurant,8,critical,10,
247,pilot,,white,Jamal,forward,,1,1,black,filler,,1,224,,,fancy restaurant,8,critical,11,
247,pilot,,white,Jamal,to,,1,1,black,filler,,1,224,,,fancy restaurant,8,critical,12,
247,pilot,,white,Jamal,taking,,1,1,black,filler,,1,248,,,fancy restaurant,8,critical,13,
247,pilot,,white,Jamal,his,,1,1,black,filler,,1,288,,,fancy restaurant,8,critical,14,
247,pilot,,white,Jamal,partner,,1,1,black,filler,,1,224,,,fancy restaurant,8,critical,15,
247,pilot,,white,Jamal,there.,,1,1,black,filler,,1,336,,,fancy restaurant,8,critical,16,
247,pilot,,none,Kareem,&quot;Wow&quot;,,1,1,black,filler,,1,200,,,friend,9,filler,0,
247,pilot,,none,Kareem,he,,1,1,black,filler,,1,224,,,friend,9,filler,1,
247,pilot,,none,Kareem,"said,",,1,1,black,filler,,1,240,,,friend,9,filler,2,
247,pilot,,none,Kareem,unable,,1,1,black,filler,,1,240,,,friend,9,filler,3,
247,pilot,,none,Kareem,to,,1,1,black,filler,,1,216,,,friend,9,filler,4,
247,pilot,,none,Kareem,believe,,1,1,black,filler,,1,256,,,friend,9,filler,5,
247,pilot,,none,Kareem,it,,1,1,black,filler,,1,264,,,friend,9,filler,6,
247,pilot,,none,Kareem,had,,1,1,black,filler,,1,248,,,friend,9,filler,7,
247,pilot,,none,Kareem,been,,1,1,black,filler,,1,248,,,friend,9,filler,8,
247,pilot,,none,Kareem,so,,1,1,black,filler,,1,216,,,friend,9,filler,9,
247,pilot,,none,Kareem,long,,1,1,black,filler,,1,224,,,friend,9,filler,10,
247,pilot,,none,Kareem,since,,1,1,black,filler,,1,224,,,friend,9,filler,11,
247,pilot,,none,Kareem,he,,1,1,black,filler,,1,208,,,friend,9,filler,12,
247,pilot,,none,Kareem,last,,1,1,black,filler,,1,216,,,friend,9,filler,13,
247,pilot,,none,Kareem,talked,,1,1,black,filler,,1,216,,,friend,9,filler,14,
247,pilot,,none,Kareem,to,,1,1,black,filler,,1,264,,,friend,9,filler,15,
247,pilot,,none,Kareem,his,,1,1,black,filler,,1,264,,,friend,9,filler,16,
247,pilot,,none,Kareem,friend.,,1,1,black,filler,,1,392,,,friend,9,filler,17,
247,pilot,,none,Hunter,He,,1,1,white,filler,,0,408,,,poker,10,filler,0,
247,pilot,,none,Hunter,couldn&rsquo;t,,1,1,white,filler,,0,312,,,poker,10,filler,1,
247,pilot,,none,Hunter,wait,,1,1,white,filler,,0,288,,,poker,10,filler,2,
247,pilot,,none,Hunter,to,,1,1,white,filler,,0,224,,,poker,10,filler,3,
247,pilot,,none,Hunter,beat,,1,1,white,filler,,0,248,,,poker,10,filler,4,
247,pilot,,none,Hunter,them,,1,1,white,filler,,0,240,,,poker,10,filler,5,
247,pilot,,none,Hunter,at,,1,1,white,filler,,0,208,,,poker,10,filler,6,
247,pilot,,none,Hunter,a,,1,1,white,filler,,0,208,,,poker,10,filler,7,
247,pilot,,none,Hunter,game,,1,1,white,filler,,0,240,,,poker,10,filler,8,
247,pilot,,none,Hunter,of,,1,1,white,filler,,0,232,,,poker,10,filler,9,
247,pilot,,none,Hunter,poker,,1,1,white,filler,,0,216,,,poker,10,filler,10,
247,pilot,,none,Hunter,again.,,1,1,white,filler,,0,240,,,poker,10,filler,11,
247,pilot,,black,Peter,He,,1,1,white,filler,,1,368,,,park,11,critical,0,
247,pilot,,black,Peter,remembered,,1,1,white,filler,,1,232,,,park,11,critical,1,
247,pilot,,black,Peter,going,,1,1,white,filler,,1,272,,,park,11,critical,2,
247,pilot,,black,Peter,to,,1,1,white,filler,,1,224,,,park,11,critical,3,
247,pilot,,black,Peter,that,,1,1,white,filler,,1,232,,,park,11,critical,4,
247,pilot,,black,Peter,same,,1,1,white,filler,,1,240,,,park,11,critical,5,
247,pilot,,black,Peter,park,,1,1,white,filler,,1,272,,,park,11,critical,6,
247,pilot,,black,Peter,as,,1,1,white,filler,,1,2184,,,park,11,critical,7,
247,pilot,,black,Peter,a,,1,1,white,filler,,1,208,,,park,11,critical,8,
247,pilot,,black,Peter,kid,,1,1,white,filler,,1,216,,,park,11,critical,9,
247,pilot,,black,Peter,after,,1,1,white,filler,,1,240,,,park,11,critical,10,
247,pilot,,black,Peter,school,,1,1,white,filler,,1,216,,,park,11,critical,11,
247,pilot,,black,Peter,and,,1,1,white,filler,,1,208,,,park,11,critical,12,
247,pilot,,black,Peter,shooting,,1,1,white,filler,,1,208,,,park,11,critical,13,
247,pilot,,black,Peter,hoops,,1,1,white,filler,,1,192,,,park,11,critical,14,
247,pilot,,black,Peter,with,,1,1,white,filler,,1,232,,,park,11,critical,15,
247,pilot,,black,Peter,his,,1,1,white,filler,,1,216,,,park,11,critical,16,
247,pilot,,black,Peter,friends.,,1,1,white,filler,,1,208,,,park,11,critical,17,
247,pilot,,none,Ethan,He,,1,1,white,filler,,1,216,,,driving,12,filler,0,
247,pilot,,none,Ethan,did,,1,1,white,filler,,1,264,,,driving,12,filler,1,
247,pilot,,none,Ethan,not,,1,1,white,filler,,1,224,,,driving,12,filler,2,
247,pilot,,none,Ethan,expect,,1,1,white,filler,,1,208,,,driving,12,filler,3,
247,pilot,,none,Ethan,to,,1,1,white,filler,,1,208,,,driving,12,filler,4,
247,pilot,,none,Ethan,see,,1,1,white,filler,,1,208,,,driving,12,filler,5,
247,pilot,,none,Ethan,a,,1,1,white,filler,,1,216,,,driving,12,filler,6,
247,pilot,,none,Ethan,deer,,1,1,white,filler,,1,192,,,driving,12,filler,7,
247,pilot,,none,Ethan,run,,1,1,white,filler,,1,200,,,driving,12,filler,8,
247,pilot,,none,Ethan,across,,1,1,white,filler,,1,200,,,driving,12,filler,9,
247,pilot,,none,Ethan,the,,1,1,white,filler,,1,208,,,driving,12,filler,10,
247,pilot,,none,Ethan,road,,1,1,white,filler,,1,208,,,driving,12,filler,11,
247,pilot,,none,Ethan,in,,1,1,white,filler,,1,208,,,driving,12,filler,12,
247,pilot,,none,Ethan,front,,1,1,white,filler,,1,224,,,driving,12,filler,13,
247,pilot,,none,Ethan,of,,1,1,white,filler,,1,248,,,driving,12,filler,14,
247,pilot,,none,Ethan,him.,,1,1,white,filler,,1,688,,,driving,12,filler,15,
247,pilot,,none,Ian,It,,1,1,white,filler,,1,200,,,job,13,filler,0,
247,pilot,,none,Ian,was,,1,1,white,filler,,1,208,,,job,13,filler,1,
247,pilot,,none,Ian,going,,1,1,white,filler,,1,224,,,job,13,filler,2,
247,pilot,,none,Ian,to,,1,1,white,filler,,1,208,,,job,13,filler,3,
247,pilot,,none,Ian,be,,1,1,white,filler,,1,232,,,job,13,filler,4,
247,pilot,,none,Ian,a,,1,1,white,filler,,1,216,,,job,13,filler,5,
247,pilot,,none,Ian,long,,1,1,white,filler,,1,200,,,job,13,filler,6,
247,pilot,,none,Ian,day,,1,1,white,filler,,1,200,,,job,13,filler,7,
247,pilot,,none,Ian,at,,1,1,white,filler,,1,184,,,job,13,filler,8,
247,pilot,,none,Ian,the,,1,1,white,filler,,1,200,,,job,13,filler,9,
247,pilot,,none,Ian,office,,1,1,white,filler,,1,208,,,job,13,filler,10,
247,pilot,,none,Ian,"tomorrow,",,1,1,white,filler,,1,208,,,job,13,filler,11,
247,pilot,,none,Ian,and,,1,1,white,filler,,1,208,,,job,13,filler,12,
247,pilot,,none,Ian,he,,1,1,white,filler,,1,224,,,job,13,filler,13,
247,pilot,,none,Ian,knew,,1,1,white,filler,,1,192,,,job,13,filler,14,
247,pilot,,none,Ian,that,,1,1,white,filler,,1,208,,,job,13,filler,15,
247,pilot,,none,Ian,without,,1,1,white,filler,,1,184,,,job,13,filler,16,
247,pilot,,none,Ian,eight,,1,1,white,filler,,1,200,,,job,13,filler,17,
247,pilot,,none,Ian,hours,,1,1,white,filler,,1,248,,,job,13,filler,18,
247,pilot,,none,Ian,of,,1,1,white,filler,,1,200,,,job,13,filler,19,
247,pilot,,none,Ian,sleep,,1,1,white,filler,,1,208,,,job,13,filler,20,
247,pilot,,none,Ian,he,,1,1,white,filler,,1,208,,,job,13,filler,21,
247,pilot,,none,Ian,would,,1,1,white,filler,,1,208,,,job,13,filler,22,
247,pilot,,none,Ian,get,,1,1,white,filler,,1,208,,,job,13,filler,23,
247,pilot,,none,Ian,really,,1,1,white,filler,,1,216,,,job,13,filler,24,
247,pilot,,none,Ian,tired,,1,1,white,filler,,1,208,,,job,13,filler,25,
247,pilot,,none,Ian,on,,1,1,white,filler,,1,232,,,job,13,filler,26,
247,pilot,,none,Ian,the,,1,1,white,filler,,1,208,,,job,13,filler,27,
247,pilot,,none,Ian,job.,,1,1,white,filler,,1,224,,,job,13,filler,28,
247,pilot,,none,Paul,&quot;Hopefully,,1,1,white,filler,,0,200,,,debate,14,filler,0,
247,pilot,,none,Paul,my,,1,1,white,filler,,0,184,,,debate,14,filler,1,
247,pilot,,none,Paul,experience,,1,1,white,filler,,0,240,,,debate,14,filler,2,
247,pilot,,none,Paul,on,,1,1,white,filler,,0,224,,,debate,14,filler,3,
247,pilot,,none,Paul,the,,1,1,white,filler,,0,232,,,debate,14,filler,4,
247,pilot,,none,Paul,debate,,1,1,white,filler,,0,240,,,debate,14,filler,5,
247,pilot,,none,Paul,team,,1,1,white,filler,,0,208,,,debate,14,filler,6,
247,pilot,,none,Paul,in,,1,1,white,filler,,0,224,,,debate,14,filler,7,
247,pilot,,none,Paul,high,,1,1,white,filler,,0,208,,,debate,14,filler,8,
247,pilot,,none,Paul,school,,1,1,white,filler,,0,216,,,debate,14,filler,9,
247,pilot,,none,Paul,will,,1,1,white,filler,,0,224,,,debate,14,filler,10,
247,pilot,,none,Paul,"help,&quot;",,1,1,white,filler,,0,216,,,debate,14,filler,11,
247,pilot,,none,Paul,Paul,,1,1,white,name,,0,208,,,debate,14,filler,12,
247,pilot,,none,Paul,thought.,,1,1,white,filler,,0,296,,,debate,14,filler,13,
247,pilot,,white,Jermaine,He,,1,1,black,filler,,1,184,,,test,15,critical,0,
247,pilot,,white,Jermaine,hoped,,1,1,black,filler,,1,184,,,test,15,critical,1,
247,pilot,,white,Jermaine,it,,1,1,black,filler,,1,192,,,test,15,critical,2,
247,pilot,,white,Jermaine,wouldn&rsquo;t,,1,1,black,filler,,1,200,,,test,15,critical,3,
247,pilot,,white,Jermaine,turn,,1,1,black,filler,,1,192,,,test,15,critical,4,
247,pilot,,white,Jermaine,out,,1,1,black,filler,,1,208,,,test,15,critical,5,
247,pilot,,white,Jermaine,like,,1,1,black,filler,,1,200,,,test,15,critical,6,
247,pilot,,white,Jermaine,his,,1,1,black,filler,,1,208,,,test,15,critical,7,
247,pilot,,white,Jermaine,worst,,1,1,black,filler,,1,200,,,test,15,critical,8,
247,pilot,,white,Jermaine,math,,1,1,black,filler,,1,200,,,test,15,critical,9,
247,pilot,,white,Jermaine,test,,1,1,black,filler,,1,208,,,test,15,critical,10,
247,pilot,,white,Jermaine,from,,1,1,black,filler,,1,208,,,test,15,critical,11,
247,pilot,,white,Jermaine,high,,1,1,black,filler,,1,216,,,test,15,critical,12,
247,pilot,,white,Jermaine,school,,1,1,black,filler,,1,208,,,test,15,critical,13,
247,pilot,,white,Jermaine,that,,1,1,black,filler,,1,224,,,test,15,critical,14,
247,pilot,,white,Jermaine,he,,1,1,black,filler,,1,208,,,test,15,critical,15,
247,pilot,,white,Jermaine,got,,1,1,black,filler,,1,224,,,test,15,critical,16,
247,pilot,,white,Jermaine,a,,1,1,black,filler,,1,224,,,test,15,critical,17,
247,pilot,,white,Jermaine,60,,1,1,black,filler,,1,216,,,test,15,critical,18,
247,pilot,,white,Jermaine,percent,,1,1,black,filler,,1,208,,,test,15,critical,19,
247,pilot,,white,Jermaine,on.,,1,1,black,filler,,1,368,,,test,15,critical,20,
247,pilot,,none,Trevon,He,,1,1,black,filler,,0,232,,,neighbors,16,filler,0,
247,pilot,,none,Trevon,slept,,1,1,black,filler,,0,200,,,neighbors,16,filler,1,
247,pilot,,none,Trevon,badly,,1,1,black,filler,,0,240,,,neighbors,16,filler,2,
247,pilot,,none,Trevon,"again,",,1,1,black,filler,,0,264,,,neighbors,16,filler,3,
247,pilot,,none,Trevon,probably,,1,1,black,filler,,0,904,,,neighbors,16,filler,4,
247,pilot,,none,Trevon,because,,1,1,black,filler,,0,208,,,neighbors,16,filler,5,
247,pilot,,none,Trevon,of,,1,1,black,filler,,0,208,,,neighbors,16,filler,6,
247,pilot,,none,Trevon,the,,1,1,black,filler,,0,248,,,neighbors,16,filler,7,
247,pilot,,none,Trevon,noise,,1,1,black,filler,,0,256,,,neighbors,16,filler,8,
247,pilot,,none,Trevon,that,,1,1,black,filler,,0,224,,,neighbors,16,filler,9,
247,pilot,,none,Trevon,always,,1,1,black,filler,,0,232,,,neighbors,16,filler,10,
247,pilot,,none,Trevon,came,,1,1,black,filler,,0,216,,,neighbors,16,filler,11,
247,pilot,,none,Trevon,from,,1,1,black,filler,,0,248,,,neighbors,16,filler,12,
247,pilot,,none,Trevon,his,,1,1,black,filler,,0,248,,,neighbors,16,filler,13,
247,pilot,,none,Trevon,neighbors.,,1,1,black,filler,,0,888,,,neighbors,16,filler,14,
247,pilot,,black,Deshawn,To,,1,1,black,filler,,1,208,,,genre,17,critical,0,
247,pilot,,black,Deshawn,really,,1,1,black,filler,,1,240,,,genre,17,critical,1,
247,pilot,,black,Deshawn,relax,,1,1,black,filler,,1,232,,,genre,17,critical,2,
247,pilot,,black,Deshawn,"though,",,1,1,black,filler,,1,208,,,genre,17,critical,3,
247,pilot,,black,Deshawn,he,,1,1,black,filler,,1,208,,,genre,17,critical,4,
247,pilot,,black,Deshawn,pulled,,1,1,black,filler,,1,232,,,genre,17,critical,5,
247,pilot,,black,Deshawn,his,,1,1,black,filler,,1,248,,,genre,17,critical,6,
247,pilot,,black,Deshawn,phone,,1,1,black,filler,,1,248,,,genre,17,critical,7,
247,pilot,,black,Deshawn,out,,1,1,black,filler,,1,256,,,genre,17,critical,8,
247,pilot,,black,Deshawn,and,,1,1,black,filler,,1,256,,,genre,17,critical,9,
247,pilot,,black,Deshawn,started,,1,1,black,filler,,1,280,,,genre,17,critical,10,
247,pilot,,black,Deshawn,playing,,1,1,black,filler,,1,264,,,genre,17,critical,11,
247,pilot,,black,Deshawn,some,,1,1,black,filler,,1,248,,,genre,17,critical,12,
247,pilot,,black,Deshawn,indie,,1,1,black,filler,,1,224,,,genre,17,critical,13,
247,pilot,,black,Deshawn,"folk,",,1,1,black,filler,,1,256,,,genre,17,critical,14,
247,pilot,,black,Deshawn,his,,1,1,black,filler,,1,232,,,genre,17,critical,15,
247,pilot,,black,Deshawn,favorite,,1,1,black,filler,,1,256,,,genre,17,critical,16,
247,pilot,,black,Deshawn,kind,,1,1,black,filler,,1,368,,,genre,17,critical,17,
247,pilot,,black,Deshawn,of,,1,1,black,filler,,1,264,,,genre,17,critical,18,
247,pilot,,black,Deshawn,music.,,1,1,black,filler,,1,2480,,,genre,17,critical,19,
246,pilot,,,,,Susan,,,,,"[0, 'Susan']",,,1,bot_check,,,,,
246,pilot,,,Roger,Unfortunately,,,,,filler,,1,816,,,shaving,0,practice,0,
246,pilot,,,Roger,he,,,,,filler,,1,817,,,shaving,0,practice,1,
246,pilot,,,Roger,was,,,,,filler,,1,681,,,shaving,0,practice,2,
246,pilot,,,Roger,out,,,,,filler,,1,545,,,shaving,0,practice,3,
246,pilot,,,Roger,of,,,,,filler,,1,584,,,shaving,0,practice,4,
246,pilot,,,Roger,shaving,,,,,filler,,1,622,,,shaving,0,practice,5,
246,pilot,,,Roger,"cream,",,,,,filler,,1,662,,,shaving,0,practice,6,
246,pilot,,,Roger,so,,,,,filler,,1,544,,,shaving,0,practice,7,
246,pilot,,,Roger,he,,,,,filler,,1,584,,,shaving,0,practice,8,
246,pilot,,,Roger,had,,,,,filler,,1,506,,,shaving,0,practice,9,
246,pilot,,,Roger,to,,,,,filler,,1,467,,,shaving,0,practice,10,
246,pilot,,,Roger,run,,,,,filler,,1,486,,,shaving,0,practice,11,
246,pilot,,,Roger,to,,,,,filler,,1,468,,,shaving,0,practice,12,
246,pilot,,,Roger,the,,,,,filler,,1,505,,,shaving,0,practice,13,
246,pilot,,,Roger,store,,,,,filler,,1,429,,,shaving,0,practice,14,
246,pilot,,,Roger,before,,,,,filler,,1,467,,,shaving,0,practice,15,
246,pilot,,,Roger,shaving.,,,,,filler,,1,2956,,,shaving,0,practice,16,
246,pilot,,,Roger,He,,,,,filler,,1,467,,,groceries,0,practice,0,
246,pilot,,,Roger,really,,,,,filler,,1,467,,,groceries,0,practice,1,
246,pilot,,,Roger,wanted,,,,,filler,,1,467,,,groceries,0,practice,2,
246,pilot,,,Roger,to,,,,,filler,,1,429,,,groceries,0,practice,3,
246,pilot,,,Roger,pick,,,,,filler,,1,544,,,groceries,0,practice,4,
246,pilot,,,Roger,up,,,,,filler,,1,662,,,groceries,0,practice,5,
246,pilot,,,Roger,some,,,,,filler,,1,506,,,groceries,0,practice,6,
246,pilot,,,Roger,eggs,,,,,filler,,1,603,,,groceries,0,practice,7,
246,pilot,,,Roger,and,,,,,filler,,1,467,,,groceries,0,practice,8,
246,pilot,,,Roger,orange,,,,,filler,,1,545,,,groceries,0,practice,9,
246,pilot,,,Roger,juice,,,,,filler,,1,545,,,groceries,0,practice,10,
246,pilot,,,Roger,for,,,,,filler,,1,583,,,groceries,0,practice,11,
246,pilot,,,Roger,breakfast.,,,,,filler,,1,1168,,,groceries,0,practice,12,
246,pilot,,,Roger,This,,,,,filler,,1,389,,,computer,0,practice,0,
246,pilot,,,Roger,was,,,,,filler,,1,428,,,computer,0,practice,1,
246,pilot,,,Roger,the,,,,,filler,,1,448,,,computer,0,practice,2,
246,pilot,,,Roger,worst,,,,,filler,,1,428,,,computer,0,practice,3,
246,pilot,,,Roger,time,,,,,filler,,1,390,,,computer,0,practice,4,
246,pilot,,,Roger,for,,,,,filler,,1,429,,,computer,0,practice,5,
246,pilot,,,Roger,it,,,,,filler,,1,389,,,computer,0,practice,6,
246,pilot,,,Roger,to,,,,,filler,,1,390,,,computer,0,practice,7,
246,pilot,,,Roger,break,,,,,filler,,1,467,,,computer,0,practice,8,
246,pilot,,,Roger,"down,",,,,,filler,,1,448,,,computer,0,practice,9,
246,pilot,,,Roger,as,,,,,filler,,1,505,,,computer,0,practice,10,
246,pilot,,,Roger,David,,,,,name,,1,507,,,computer,0,practice,11,
246,pilot,,,Roger,had,,,,,filler,,1,467,,,computer,0,practice,12,
246,pilot,,,Roger,a,,,,,filler,,1,467,,,computer,0,practice,13,
246,pilot,,,Roger,lot,,,,,filler,,1,486,,,computer,0,practice,14,
246,pilot,,,Roger,of,,,,,filler,,1,428,,,computer,0,practice,15,
246,pilot,,,Roger,work,,,,,filler,,1,467,,,computer,0,practice,16,
246,pilot,,,Roger,to,,,,,filler,,1,506,,,computer,0,practice,17,
246,pilot,,,Roger,do,,,,,filler,,1,467,,,computer,0,practice,18,
246,pilot,,,Roger,the,,,,,filler,,1,467,,,computer,0,practice,19,
246,pilot,,,Roger,next,,,,,filler,,1,545,,,computer,0,practice,20,
246,pilot,,,Roger,day.,,,,,filler,,1,896,,,computer,0,practice,21,
246,pilot,,,Roger,He,,,,,filler,,1,428,,,running,0,practice,0,
246,pilot,,,Roger,decided,,,,,filler,,1,661,,,running,0,practice,1,
246,pilot,,,Roger,to,,,,,filler,,1,390,,,running,0,practice,2,
246,pilot,,,Roger,take,,,,,filler,,1,428,,,running,0,practice,3,
246,pilot,,,Roger,advantage,,,,,filler,,1,467,,,running,0,practice,4,
246,pilot,,,Roger,of,,,,,filler,,1,429,,,running,0,practice,5,
246,pilot,,,Roger,the,,,,,filler,,1,428,,,running,0,practice,6,
246,pilot,,,Roger,weather,,,,,filler,,1,390,,,running,0,practice,7,
246,pilot,,,Roger,and,,,,,filler,,1,467,,,running,0,practice,8,
246,pilot,,,Roger,go,,,,,filler,,1,545,,,running,0,practice,9,
246,pilot,,,Roger,for,,,,,filler,,1,661,,,running,0,practice,10,
246,pilot,,,Roger,a,,,,,filler,,1,487,,,running,0,practice,11,
246,pilot,,,Roger,run,,,,,filler,,1,428,,,running,0,practice,12,
246,pilot,,,Roger,today.,,,,,filler,,1,701,,,running,0,practice,13,
246,pilot,,white,Dylan,He,,1,1,white,filler,,1,428,,,performing,0,critical,0,
246,pilot,,white,Dylan,knew,,1,1,white,filler,,1,389,,,performing,0,critical,1,
246,pilot,,white,Dylan,that,,1,1,white,filler,,1,545,,,performing,0,critical,2,
246,pilot,,white,Dylan,no,,1,1,white,filler,,1,467,,,performing,0,critical,3,
246,pilot,,white,Dylan,matter,,1,1,white,filler,,1,545,,,performing,0,critical,4,
246,pilot,,white,Dylan,how,,1,1,white,filler,,1,467,,,performing,0,critical,5,
246,pilot,,white,Dylan,many,,1,1,white,filler,,1,391,,,performing,0,critical,6,
246,pilot,,white,Dylan,times,,1,1,white,filler,,1,427,,,performing,0,critical,7,
246,pilot,,white,Dylan,he,,1,1,white,filler,,1,409,,,performing,0,critical,8,
246,pilot,,white,Dylan,got,,1,1,white,filler,,1,428,,,performing,0,critical,9,
246,pilot,,white,Dylan,on,,1,1,white,filler,,1,468,,,performing,0,critical,10,
246,pilot,,white,Dylan,"stage,",,1,1,white,filler,,1,545,,,performing,0,critical,11,
246,pilot,,white,Dylan,he,,1,1,white,filler,,1,467,,,performing,0,critical,12,
246,pilot,,white,Dylan,would,,1,1,white,filler,,1,505,,,performing,0,critical,13,
246,pilot,,white,Dylan,always,,1,1,white,filler,,1,429,,,performing,0,critical,14,
246,pilot,,white,Dylan,be,,1,1,white,filler,,1,428,,,performing,0,critical,15,
246,pilot,,white,Dylan,nervous,,1,1,white,filler,,1,545,,,performing,0,critical,16,
246,pilot,,white,Dylan,to,,1,1,white,filler,,1,390,,,performing,0,critical,17,
246,pilot,,white,Dylan,play,,1,1,white,filler,,1,428,,,performing,0,critical,18,
246,pilot,,white,Dylan,the,,1,1,white,filler,,1,429,,,performing,0,critical,19,
246,pilot,,white,Dylan,tuba,,1,1,white,filler,,1,583,,,performing,0,critical,20,
246,pilot,,white,Dylan,in,,1,1,white,filler,,1,468,,,performing,0,critical,21,
246,pilot,,white,Dylan,front,,1,1,white,filler,,1,505,,,performing,0,critical,22,
246,pilot,,white,Dylan,of,,1,1,white,filler,,1,429,,,performing,0,critical,23,
246,pilot,,white,Dylan,an,,1,1,white,filler,,1,467,,,performing,0,critical,24,
246,pilot,,white,Dylan,audience.,,1,1,white,filler,,1,934,,,performing,0,critical,25,
246,pilot,,none,Jack,He,,1,1,white,filler,,0,875,,,driving,1,filler,0,
246,pilot,,none,Jack,did,,1,1,white,filler,,0,389,,,driving,1,filler,1,
246,pilot,,none,Jack,not,,1,1,white,filler,,0,390,,,driving,1,filler,2,
246,pilot,,none,Jack,expect,,1,1,white,filler,,0,332,,,driving,1,filler,3,
246,pilot,,none,Jack,to,,1,1,white,filler,,0,409,,,driving,1,filler,4,
246,pilot,,none,Jack,see,,1,1,white,filler,,0,389,,,driving,1,filler,5,
246,pilot,,none,Jack,a,,1,1,white,filler,,0,506,,,driving,1,filler,6,
246,pilot,,none,Jack,deer,,1,1,white,filler,,0,371,,,driving,1,filler,7,
246,pilot,,none,Jack,run,,1,1,white,filler,,0,505,,,driving,1,filler,8,
246,pilot,,none,Jack,across,,1,1,white,filler,,0,545,,,driving,1,filler,9,
246,pilot,,none,Jack,the,,1,1,white,filler,,0,525,,,driving,1,filler,10,
246,pilot,,none,Jack,road,,1,1,white,filler,,0,506,,,driving,1,filler,11,
246,pilot,,none,Jack,in,,1,1,white,filler,,0,584,,,driving,1,filler,12,
246,pilot,,none,Jack,front,,1,1,white,filler,,0,544,,,driving,1,filler,13,
246,pilot,,none,Jack,of,,1,1,white,filler,,0,506,,,driving,1,filler,14,
246,pilot,,none,Jack,him.,,1,1,white,filler,,0,818,,,driving,1,filler,15,
246,pilot,,none,Deandre,He,,1,1,black,filler,,0,1362,,,dentist,2,filler,0,
246,pilot,,none,Deandre,remembered,,1,1,black,filler,,0,544,,,dentist,2,filler,1,
246,pilot,,none,Deandre,he,,1,1,black,filler,,0,390,,,dentist,2,filler,2,
246,pilot,,none,Deandre,had,,1,1,black,filler,,0,390,,,dentist,2,filler,3,
246,pilot,,none,Deandre,a,,1,1,black,filler,,0,351,,,dentist,2,filler,4,
246,pilot,,none,Deandre,dentist,,1,1,black,filler,,0,428,,,dentist,2,filler,5,
246,pilot,,none,Deandre,appointment,,1,1,black,filler,,0,506,,,dentist,2,filler,6,
246,pilot,,none,Deandre,"today,",,1,1,black,filler,,0,390,,,dentist,2,filler,7,
246,pilot,,none,Deandre,which,,1,1,black,filler,,0,545,,,dentist,2,filler,8,
246,pilot,,none,Deandre,he,,1,1,black,filler,,0,467,,,dentist,2,filler,9,
246,pilot,,none,Deandre,was,,1,1,black,filler,,0,467,,,dentist,2,filler,10,
246,pilot,,none,Deandre,dreading.,,1,1,black,filler,,0,3190,,,dentist,2,filler,11,
246,pilot,,black,Jermaine,He,,1,1,black,filler,,1,583,,,lazy day,3,critical,0,
246,pilot,,black,Jermaine,was,,1,1,black,filler,,1,545,,,lazy day,3,critical,1,
246,pilot,,black,Jermaine,looking,,1,1,black,filler,,1,1323,,,lazy day,3,critical,2,
246,pilot,,black,Jermaine,forward,,1,1,black,filler,,1,662,,,lazy day,3,critical,3,
246,pilot,,black,Jermaine,to,,1,1,black,filler,,1,544,,,lazy day,3,critical,4,
246,pilot,,black,Jermaine,having,,1,1,black,filler,,1,876,,,lazy day,3,critical,5,
246,pilot,,black,Jermaine,the,,1,1,black,filler,,1,389,,,lazy day,3,critical,6,
246,pilot,,black,Jermaine,time,,1,1,black,filler,,1,429,,,lazy day,3,critical,7,
246,pilot,,black,Jermaine,to,,1,1,black,filler,,1,486,,,lazy day,3,critical,8,
246,pilot,,black,Jermaine,rest,,1,1,black,filler,,1,448,,,lazy day,3,critical,9,
246,pilot,,black,Jermaine,a,,1,1,black,filler,,1,409,,,lazy day,3,critical,10,
246,pilot,,black,Jermaine,lot,,1,1,black,filler,,1,389,,,lazy day,3,critical,11,
246,pilot,,black,Jermaine,"today,",,1,1,black,filler,,1,506,,,lazy day,3,critical,12,
246,pilot,,black,Jermaine,which,,1,1,black,filler,,1,486,,,lazy day,3,critical,13,
246,pilot,,black,Jermaine,he,,1,1,black,filler,,1,429,,,lazy day,3,critical,14,
246,pilot,,black,Jermaine,hadn't,,1,1,black,filler,,1,584,,,lazy day,3,critical,15,
246,pilot,,black,Jermaine,had,,1,1,black,filler,,1,467,,,lazy day,3,critical,16,
246,pilot,,black,Jermaine,the,,1,1,black,filler,,1,428,,,lazy day,3,critical,17,
246,pilot,,black,Jermaine,time,,1,1,black,filler,,1,429,,,lazy day,3,critical,18,
246,pilot,,black,Jermaine,to,,1,1,black,filler,,1,428,,,lazy day,3,critical,19,
246,pilot,,black,Jermaine,in,,1,1,black,filler,,1,351,,,lazy day,3,critical,20,
246,pilot,,black,Jermaine,a,,1,1,black,filler,,1,447,,,lazy day,3,critical,21,
246,pilot,,black,Jermaine,while.,,1,1,black,filler,,1,2082,,,lazy day,3,critical,22,
246,pilot,,none,Lamont,It,,1,1,black,filler,,1,389,,,job,4,filler,0,
246,pilot,,none,Lamont,was,,1,1,black,filler,,1,312,,,job,4,filler,1,
246,pilot,,none,Lamont,going,,1,1,black,filler,,1,274,,,job,4,filler,2,
246,pilot,,none,Lamont,to,,1,1,black,filler,,1,351,,,job,4,filler,3,
246,pilot,,none,Lamont,be,,1,1,black,filler,,1,312,,,job,4,filler,4,
246,pilot,,none,Lamont,a,,1,1,black,filler,,1,351,,,job,4,filler,5,
246,pilot,,none,Lamont,long,,1,1,black,filler,,1,332,,,job,4,filler,6,
246,pilot,,none,Lamont,day,,1,1,black,filler,,1,390,,,job,4,filler,7,
246,pilot,,none,Lamont,at,,1,1,black,filler,,1,428,,,job,4,filler,8,
246,pilot,,none,Lamont,the,,1,1,black,filler,,1,351,,,job,4,filler,9,
246,pilot,,none,Lamont,office,,1,1,black,filler,,1,448,,,job,4,filler,10,
246,pilot,,none,Lamont,"tomorrow,",,1,1,black,filler,,1,428,,,job,4,filler,11,
246,pilot,,none,Lamont,and,,1,1,black,filler,,1,506,,,job,4,filler,12,
246,pilot,,none,Lamont,he,,1,1,black,filler,,1,428,,,job,4,filler,13,
246,pilot,,none,Lamont,knew,,1,1,black,filler,,1,506,,,job,4,filler,14,
246,pilot,,none,Lamont,that,,1,1,black,filler,,1,428,,,job,4,filler,15,
246,pilot,,none,Lamont,without,,1,1,black,filler,,1,584,,,job,4,filler,16,
246,pilot,,none,Lamont,eight,,1,1,black,filler,,1,428,,,job,4,filler,17,
246,pilot,,none,Lamont,hours,,1,1,black,filler,,1,584,,,job,4,filler,18,
246,pilot,,none,Lamont,of,,1,1,black,filler,,1,429,,,job,4,filler,19,
246,pilot,,none,Lamont,sleep,,1,1,black,filler,,1,351,,,job,4,filler,20,
246,pilot,,none,Lamont,he,,1,1,black,filler,,1,506,,,job,4,filler,21,
246,pilot,,none,Lamont,would,,1,1,black,filler,,1,467,,,job,4,filler,22,
246,pilot,,none,Lamont,get,,1,1,black,filler,,1,429,,,job,4,filler,23,
246,pilot,,none,Lamont,really,,1,1,black,filler,,1,544,,,job,4,filler,24,
246,pilot,,none,Lamont,tired,,1,1,black,filler,,1,506,,,job,4,filler,25,
246,pilot,,none,Lamont,on,,1,1,black,filler,,1,467,,,job,4,filler,26,
246,pilot,,none,Lamont,the,,1,1,black,filler,,1,428,,,job,4,filler,27,
246,pilot,,none,Lamont,job.,,1,1,black,filler,,1,973,,,job,4,filler,28,
246,pilot,,none,Tremayne,He,,1,1,black,filler,,1,505,,,gray car,5,filler,0,
246,pilot,,none,Tremayne,hopped,,1,1,black,filler,,1,429,,,gray car,5,filler,1,
246,pilot,,none,Tremayne,into,,1,1,black,filler,,1,467,,,gray car,5,filler,2,
246,pilot,,none,Tremayne,his,,1,1,black,filler,,1,486,,,gray car,5,filler,3,
246,pilot,,none,Tremayne,"car,",,1,1,black,filler,,1,623,,,gray car,5,filler,4,
246,pilot,,none,Tremayne,a,,1,1,black,filler,,1,544,,,gray car,5,filler,5,
246,pilot,,none,Tremayne,gray,,1,1,black,filler,,1,584,,,gray car,5,filler,6,
246,pilot,,none,Tremayne,"Honda,",,1,1,black,filler,,1,623,,,gray car,5,filler,7,
246,pilot,,none,Tremayne,to,,1,1,black,filler,,1,467,,,gray car,5,filler,8,
246,pilot,,none,Tremayne,go,,1,1,black,filler,,1,428,,,gray car,5,filler,9,
246,pilot,,none,Tremayne,meet,,1,1,black,filler,,1,429,,,gray car,5,filler,10,
246,pilot,,none,Tremayne,his,,1,1,black,filler,,1,428,,,gray car,5,filler,11,
246,pilot,,none,Tremayne,friends.,,1,1,black,filler,,1,817,,,gray car,5,filler,12,
246,pilot,,white,Tyree,He,,1,1,black,filler,,1,447,,,test,6,critical,0,
246,pilot,,white,Tyree,hoped,,1,1,black,filler,,1,351,,,test,6,critical,1,
246,pilot,,white,Tyree,it,,1,1,black,filler,,1,390,,,test,6,critical,2,
246,pilot,,white,Tyree,wouldn&rsquo;t,,1,1,black,filler,,1,583,,,test,6,critical,3,
246,pilot,,white,Tyree,turn,,1,1,black,filler,,1,701,,,test,6,critical,4,
246,pilot,,white,Tyree,out,,1,1,black,filler,,1,544,,,test,6,critical,5,
246,pilot,,white,Tyree,like,,1,1,black,filler,,1,623,,,test,6,critical,6,
246,pilot,,white,Tyree,his,,1,1,black,filler,,1,545,,,test,6,critical,7,
246,pilot,,white,Tyree,worst,,1,1,black,filler,,1,895,,,test,6,critical,8,
246,pilot,,white,Tyree,math,,1,1,black,filler,,1,545,,,test,6,critical,9,
246,pilot,,white,Tyree,test,,1,1,black,filler,,1,428,,,test,6,critical,10,
246,pilot,,white,Tyree,from,,1,1,black,filler,,1,467,,,test,6,critical,11,
246,pilot,,white,Tyree,high,,1,1,black,filler,,1,351,,,test,6,critical,12,
246,pilot,,white,Tyree,school,,1,1,black,filler,,1,389,,,test,6,critical,13,
246,pilot,,white,Tyree,that,,1,1,black,filler,,1,390,,,test,6,critical,14,
246,pilot,,white,Tyree,he,,1,1,black,filler,,1,584,,,test,6,critical,15,
246,pilot,,white,Tyree,got,,1,1,black,filler,,1,429,,,test,6,critical,16,
246,pilot,,white,Tyree,a,,1,1,black,filler,,1,390,,,test,6,critical,17,
246,pilot,,white,Tyree,60,,1,1,black,filler,,1,506,,,test,6,critical,18,
246,pilot,,white,Tyree,percent,,1,1,black,filler,,1,545,,,test,6,critical,19,
246,pilot,,white,Tyree,on.,,1,1,black,filler,,1,622,,,test,6,critical,20,
246,pilot,,black,Connor,He,,1,1,white,filler,,1,389,,,fancy restaurant,7,critical,0,
246,pilot,,black,Connor,had,,1,1,white,filler,,1,351,,,fancy restaurant,7,critical,1,
246,pilot,,black,Connor,made,,1,1,white,filler,,1,313,,,fancy restaurant,7,critical,2,
246,pilot,,black,Connor,a,,1,1,white,filler,,1,389,,,fancy restaurant,7,critical,3,
246,pilot,,black,Connor,reservation,,1,1,white,filler,,1,506,,,fancy restaurant,7,critical,4,
246,pilot,,black,Connor,at,,1,1,white,filler,,1,390,,,fancy restaurant,7,critical,5,
246,pilot,,black,Connor,"Chili&rsquo;s,",,1,1,white,filler,,1,623,,,fancy restaurant,7,critical,6,
246,pilot,,black,Connor,and,,1,1,white,filler,,1,428,,,fancy restaurant,7,critical,7,
246,pilot,,black,Connor,was,,1,1,white,filler,,1,428,,,fancy restaurant,7,critical,8,
246,pilot,,black,Connor,looking,,1,1,white,filler,,1,429,,,fancy restaurant,7,critical,9,
246,pilot,,black,Connor,forward,,1,1,white,filler,,1,428,,,fancy restaurant,7,critical,10,
246,pilot,,black,Connor,to,,1,1,white,filler,,1,428,,,fancy restaurant,7,critical,11,
246,pilot,,black,Connor,taking,,1,1,white,filler,,1,429,,,fancy restaurant,7,critical,12,
246,pilot,,black,Connor,his,,1,1,white,filler,,1,545,,,fancy restaurant,7,critical,13,
246,pilot,,black,Connor,partner,,1,1,white,filler,,1,505,,,fancy restaurant,7,critical,14,
246,pilot,,black,Connor,there.,,1,1,white,filler,,1,3074,,,fancy restaurant,7,critical,15,
246,pilot,,none,Rasheed,&quot;Sarah!,,1,1,black,filler,,1,428,,,sister,8,filler,0,
246,pilot,,none,Rasheed,I&rsquo;m,,1,1,black,filler,,1,506,,,sister,8,filler,1,
246,pilot,,none,Rasheed,sorry,,1,1,black,filler,,1,351,,,sister,8,filler,2,
246,pilot,,none,Rasheed,for,,1,1,black,filler,,1,370,,,sister,8,filler,3,
246,pilot,,none,Rasheed,missing,,1,1,black,filler,,1,429,,,sister,8,filler,4,
246,pilot,,none,Rasheed,your,,1,1,black,filler,,1,351,,,sister,8,filler,5,
246,pilot,,none,Rasheed,messages!&quot;,,1,1,black,filler,,1,428,,,sister,8,filler,6,
246,pilot,,none,Rasheed,he,,1,1,black,filler,,1,467,,,sister,8,filler,7,
246,pilot,,none,Rasheed,"said,",,1,1,black,filler,,1,429,,,sister,8,filler,8,
246,pilot,,none,Rasheed,genuinely,,1,1,black,filler,,1,564,,,sister,8,filler,9,
246,pilot,,none,Rasheed,feeling,,1,1,black,filler,,1,506,,,sister,8,filler,10,
246,pilot,,none,Rasheed,bad.,,1,1,black,filler,,1,642,,,sister,8,filler,11,
246,pilot,,black,Brett,To,,1,1,white,filler,,1,544,,,genre,9,critical,0,
246,pilot,,black,Brett,really,,1,1,white,filler,,1,817,,,genre,9,critical,1,
246,pilot,,black,Brett,relax,,1,1,white,filler,,1,545,,,genre,9,critical,2,
246,pilot,,black,Brett,"though,",,1,1,white,filler,,1,467,,,genre,9,critical,3,
246,pilot,,black,Brett,he,,1,1,white,filler,,1,817,,,genre,9,critical,4,
246,pilot,,black,Brett,pulled,,1,1,white,filler,,1,545,,,genre,9,critical,5,
246,pilot,,black,Brett,his,,1,1,white,filler,,1,661,,,genre,9,critical,6,
246,pilot,,black,Brett,phone,,1,1,white,filler,,1,818,,,genre,9,critical,7,
246,pilot,,black,Brett,out,,1,1,white,filler,,1,544,,,genre,9,critical,8,
246,pilot,,black,Brett,and,,1,1,white,filler,,1,779,,,genre,9,critical,9,
246,pilot,,black,Brett,started,,1,1,white,filler,,1,583,,,genre,9,critical,10,
246,pilot,,black,Brett,playing,,1,1,white,filler,,1,506,,,genre,9,critical,11,
246,pilot,,black,Brett,some,,1,1,white,filler,,1,506,,,genre,9,critical,12,
246,pilot,,black,Brett,indie,,1,1,white,filler,,1,662,,,genre,9,critical,13,
246,pilot,,black,Brett,"folk,",,1,1,white,filler,,1,1790,,,genre,9,critical,14,
246,pilot,,black,Brett,his,,1,1,white,filler,,1,428,,,genre,9,critical,15,
246,pilot,,black,Brett,favorite,,1,1,white,filler,,1,428,,,genre,9,critical,16,
246,pilot,,black,Brett,kind,,1,1,white,filler,,1,393,,,genre,9,critical,17,
246,pilot,,black,Brett,of,,1,1,white,filler,,1,348,,,genre,9,critical,18,
246,pilot,,black,Brett,music.,,1,1,white,filler,,1,700,,,genre,9,critical,19,
246,pilot,,none,Hakeem,&quot;Wow&quot;,,1,1,black,filler,,1,467,,,friend,10,filler,0,
246,pilot,,none,Hakeem,he,,1,1,black,filler,,1,389,,,friend,10,filler,1,
246,pilot,,none,Hakeem,"said,",,1,1,black,filler,,1,390,,,friend,10,filler,2,
246,pilot,,none,Hakeem,unable,,1,1,black,filler,,1,623,,,friend,10,filler,3,
246,pilot,,none,Hakeem,to,,1,1,black,filler,,1,428,,,friend,10,filler,4,
246,pilot,,none,Hakeem,believe,,1,1,black,filler,,1,506,,,friend,10,filler,5,
246,pilot,,none,Hakeem,it,,1,1,black,filler,,1,351,,,friend,10,filler,6,
246,pilot,,none,Hakeem,had,,1,1,black,filler,,1,428,,,friend,10,filler,7,
246,pilot,,none,Hakeem,been,,1,1,black,filler,,1,390,,,friend,10,filler,8,
246,pilot,,none,Hakeem,so,,1,1,black,filler,,1,525,,,friend,10,filler,9,
246,pilot,,none,Hakeem,long,,1,1,black,filler,,1,390,,,friend,10,filler,10,
246,pilot,,none,Hakeem,since,,1,1,black,filler,,1,428,,,friend,10,filler,11,
246,pilot,,none,Hakeem,he,,1,1,black,filler,,1,390,,,friend,10,filler,12,
246,pilot,,none,Hakeem,last,,1,1,black,filler,,1,467,,,friend,10,filler,13,
246,pilot,,none,Hakeem,talked,,1,1,black,filler,,1,506,,,friend,10,filler,14,
246,pilot,,none,Hakeem,to,,1,1,black,filler,,1,467,,,friend,10,filler,15,
246,pilot,,none,Hakeem,his,,1,1,black,filler,,1,506,,,friend,10,filler,16,
246,pilot,,none,Hakeem,friend.,,1,1,black,filler,,1,856,,,friend,10,filler,17,
246,pilot,,black,Trevon,He,,1,1,black,filler,,1,622,,,lesson,11,critical,0,
246,pilot,,black,Trevon,rushed,,1,1,black,filler,,1,351,,,lesson,11,critical,1,
246,pilot,,black,Trevon,out,,1,1,black,filler,,1,390,,,lesson,11,critical,2,
246,pilot,,black,Trevon,the,,1,1,black,filler,,1,429,,,lesson,11,critical,3,
246,pilot,,black,Trevon,door,,1,1,black,filler,,1,505,,,lesson,11,critical,4,
246,pilot,,black,Trevon,to,,1,1,black,filler,,1,429,,,lesson,11,critical,5,
246,pilot,,black,Trevon,go,,1,1,black,filler,,1,428,,,lesson,11,critical,6,
246,pilot,,black,Trevon,pick,,1,1,black,filler,,1,429,,,lesson,11,critical,7,
246,pilot,,black,Trevon,up,,1,1,black,filler,,1,389,,,lesson,11,critical,8,
246,pilot,,black,Trevon,his,,1,1,black,filler,,1,448,,,lesson,11,critical,9,
246,pilot,,black,Trevon,little,,1,1,black,filler,,1,506,,,lesson,11,critical,10,
246,pilot,,black,Trevon,brother,,1,1,black,filler,,1,506,,,lesson,11,critical,11,
246,pilot,,black,Trevon,from,,1,1,black,filler,,1,467,,,lesson,11,critical,12,
246,pilot,,black,Trevon,his,,1,1,black,filler,,1,447,,,lesson,11,critical,13,
246,pilot,,black,Trevon,tennis,,1,1,black,filler,,1,506,,,lesson,11,critical,14,
246,pilot,,black,Trevon,lesson.,,1,1,black,filler,,1,778,,,lesson,11,critical,15,
246,pilot,,none,Ian,He,,1,1,white,filler,,1,428,,,neighbors,12,filler,0,
246,pilot,,none,Ian,slept,,1,1,white,filler,,1,390,,,neighbors,12,filler,1,
246,pilot,,none,Ian,badly,,1,1,white,filler,,1,389,,,neighbors,12,filler,2,
246,pilot,,none,Ian,"again,",,1,1,white,filler,,1,429,,,neighbors,12,filler,3,
246,pilot,,none,Ian,probably,,1,1,white,filler,,1,623,,,neighbors,12,filler,4,
246,pilot,,none,Ian,because,,1,1,white,filler,,1,466,,,neighbors,12,filler,5,
246,pilot,,none,Ian,of,,1,1,white,filler,,1,429,,,neighbors,12,filler,6,
246,pilot,,none,Ian,the,,1,1,white,filler,,1,428,,,neighbors,12,filler,7,
246,pilot,,none,Ian,noise,,1,1,white,filler,,1,429,,,neighbors,12,filler,8,
246,pilot,,none,Ian,that,,1,1,white,filler,,1,428,,,neighbors,12,filler,9,
246,pilot,,none,Ian,always,,1,1,white,filler,,1,428,,,neighbors,12,filler,10,
246,pilot,,none,Ian,came,,1,1,white,filler,,1,390,,,neighbors,12,filler,11,
246,pilot,,none,Ian,from,,1,1,white,filler,,1,390,,,neighbors,12,filler,12,
246,pilot,,none,Ian,his,,1,1,white,filler,,1,428,,,neighbors,12,filler,13,
246,pilot,,none,Ian,neighbors.,,1,1,white,filler,,1,817,,,neighbors,12,filler,14,
246,pilot,,white,Dustin,&quot;I,,1,1,white,filler,,1,466,,,food,13,critical,0,
246,pilot,,white,Dustin,could,,1,1,white,filler,,1,351,,,food,13,critical,1,
246,pilot,,white,Dustin,sure,,1,1,white,filler,,1,351,,,food,13,critical,2,
246,pilot,,white,Dustin,go,,1,1,white,filler,,1,312,,,food,13,critical,3,
246,pilot,,white,Dustin,for,,1,1,white,filler,,1,429,,,food,13,critical,4,
246,pilot,,white,Dustin,some,,1,1,white,filler,,1,390,,,food,13,critical,5,
246,pilot,,white,Dustin,Chinese,,1,1,white,filler,,1,350,,,food,13,critical,6,
246,pilot,,white,Dustin,right,,1,1,white,filler,,1,429,,,food,13,critical,7,
246,pilot,,white,Dustin,"now,&quot;",,1,1,white,filler,,1,429,,,food,13,critical,8,
246,pilot,,white,Dustin,he,,1,1,white,filler,,1,544,,,food,13,critical,9,
246,pilot,,white,Dustin,thought.,,1,1,white,filler,,1,934,,,food,13,critical,10,
246,pilot,,none,Peter,But,,1,1,white,filler,,1,505,,,blue car,14,filler,0,
246,pilot,,none,Peter,as,,1,1,white,filler,,1,351,,,blue car,14,filler,1,
246,pilot,,none,Peter,Peter,,1,1,white,name,,1,390,,,blue car,14,filler,2,
246,pilot,,none,Peter,checked,,1,1,white,filler,,1,351,,,blue car,14,filler,3,
246,pilot,,none,Peter,"around,",,1,1,white,filler,,1,429,,,blue car,14,filler,4,
246,pilot,,none,Peter,he,,1,1,white,filler,,1,389,,,blue car,14,filler,5,
246,pilot,,none,Peter,realized,,1,1,white,filler,,1,409,,,blue car,14,filler,6,
246,pilot,,none,Peter,that,,1,1,white,filler,,1,429,,,blue car,14,filler,7,
246,pilot,,none,Peter,the,,1,1,white,filler,,1,428,,,blue car,14,filler,8,
246,pilot,,none,Peter,only,,1,1,white,filler,,1,448,,,blue car,14,filler,9,
246,pilot,,none,Peter,thing,,1,1,white,filler,,1,428,,,blue car,14,filler,10,
246,pilot,,none,Peter,missing,,1,1,white,filler,,1,448,,,blue car,14,filler,11,
246,pilot,,none,Peter,was,,1,1,white,filler,,1,428,,,blue car,14,filler,12,
246,pilot,,none,Peter,the,,1,1,white,filler,,1,467,,,blue car,14,filler,13,
246,pilot,,none,Peter,keys,,1,1,white,filler,,1,545,,,blue car,14,filler,14,
246,pilot,,none,Peter,to,,1,1,white,filler,,1,428,,,blue car,14,filler,15,
246,pilot,,none,Peter,his,,1,1,white,filler,,1,429,,,blue car,14,filler,16,
246,pilot,,none,Peter,"car,",,1,1,white,filler,,1,409,,,blue car,14,filler,17,
246,pilot,,none,Peter,which,,1,1,white,filler,,1,428,,,blue car,14,filler,18,
246,pilot,,none,Peter,was,,1,1,white,filler,,1,370,,,blue car,14,filler,19,
246,pilot,,none,Peter,a,,1,1,white,filler,,1,623,,,blue car,14,filler,20,
246,pilot,,none,Peter,blue,,1,1,white,filler,,1,467,,,blue car,14,filler,21,
246,pilot,,none,Peter,Toyota.,,1,1,white,filler,,1,1168,,,blue car,14,filler,22,
246,pilot,,none,Cody,He,,1,1,white,filler,,1,583,,,poker,15,filler,0,
246,pilot,,none,Cody,couldn&rsquo;t,,1,1,white,filler,,1,467,,,poker,15,filler,1,
246,pilot,,none,Cody,wait,,1,1,white,filler,,1,351,,,poker,15,filler,2,
246,pilot,,none,Cody,to,,1,1,white,filler,,1,389,,,poker,15,filler,3,
246,pilot,,none,Cody,beat,,1,1,white,filler,,1,429,,,poker,15,filler,4,
246,pilot,,none,Cody,them,,1,1,white,filler,,1,370,,,poker,15,filler,5,
246,pilot,,none,Cody,at,,1,1,white,filler,,1,428,,,poker,15,filler,6,
246,pilot,,none,Cody,a,,1,1,white,filler,,1,390,,,poker,15,filler,7,
246,pilot,,none,Cody,game,,1,1,white,filler,,1,545,,,poker,15,filler,8,
246,pilot,,none,Cody,of,,1,1,white,filler,,1,564,,,poker,15,filler,9,
246,pilot,,none,Cody,poker,,1,1,white,filler,,1,856,,,poker,15,filler,10,
246,pilot,,none,Cody,again.,,1,1,white,filler,,1,5525,,,poker,15,filler,11,
246,pilot,,white,Jamal,He,,1,1,black,filler,,0,390,,,park,16,critical,0,
246,pilot,,white,Jamal,quickly,,1,1,black,filler,,0,390,,,park,16,critical,1,
246,pilot,,white,Jamal,got,,1,1,black,filler,,0,351,,,park,16,critical,2,
246,pilot,,white,Jamal,moving,,1,1,black,filler,,0,428,,,park,16,critical,3,
246,pilot,,white,Jamal,to,,1,1,black,filler,,0,429,,,park,16,critical,4,
246,pilot,,white,Jamal,go,,1,1,black,filler,,0,389,,,park,16,critical,5,
246,pilot,,white,Jamal,pick,,1,1,black,filler,,0,467,,,park,16,critical,6,
246,pilot,,white,Jamal,up,,1,1,black,filler,,0,468,,,park,16,critical,7,
246,pilot,,white,Jamal,his,,1,1,black,filler,,0,467,,,park,16,critical,8,
246,pilot,,white,Jamal,little,,1,1,black,filler,,0,505,,,park,16,critical,9,
246,pilot,,white,Jamal,cousin,,1,1,black,filler,,0,740,,,park,16,critical,10,
246,pilot,,white,Jamal,from,,1,1,black,filler,,0,467,,,park,16,critical,11,
246,pilot,,white,Jamal,volleyball,,1,1,black,filler,,0,642,,,park,16,critical,12,
246,pilot,,white,Jamal,practice.,,1,1,black,filler,,0,5718,,,park,16,critical,13,
246,pilot,,none,Roger,&quot;Hopefully,,1,1,white,filler,,1,583,,,debate,17,filler,0,
246,pilot,,none,Roger,my,,1,1,white,filler,,1,351,,,debate,17,filler,1,
246,pilot,,none,Roger,experience,,1,1,white,filler,,1,351,,,debate,17,filler,2,
246,pilot,,none,Roger,on,,1,1,white,filler,,1,390,,,debate,17,filler,3,
246,pilot,,none,Roger,the,,1,1,white,filler,,1,351,,,debate,17,filler,4,
246,pilot,,none,Roger,debate,,1,1,white,filler,,1,448,,,debate,17,filler,5,
246,pilot,,none,Roger,team,,1,1,white,filler,,1,545,,,debate,17,filler,6,
246,pilot,,none,Roger,in,,1,1,white,filler,,1,428,,,debate,17,filler,7,
246,pilot,,none,Roger,high,,1,1,white,filler,,1,390,,,debate,17,filler,8,
246,pilot,,none,Roger,school,,1,1,white,filler,,1,351,,,debate,17,filler,9,
246,pilot,,none,Roger,will,,1,1,white,filler,,1,428,,,debate,17,filler,10,
246,pilot,,none,Roger,"help,&quot;",,1,1,white,filler,,1,351,,,debate,17,filler,11,
246,pilot,,none,Roger,Roger,,1,1,white,name,,1,506,,,debate,17,filler,12,
246,pilot,,none,Roger,thought.,,1,1,white,filler,,1,837,,,debate,17,filler,13,
249,pilot,,,,,Patricia,,,,,"[0, 'Patricia']",,,1,bot_check,,,,,
249,pilot,,,Roger,He,,,,,filler,,1,597,,,running,0,practice,0,
249,pilot,,,Roger,decided,,,,,filler,,1,580,,,running,0,practice,1,
249,pilot,,,Roger,to,,,,,filler,,1,401,,,running,0,practice,2,
249,pilot,,,Roger,take,,,,,filler,,1,422,,,running,0,practice,3,
249,pilot,,,Roger,advantage,,,,,filler,,1,385,,,running,0,practice,4,
249,pilot,,,Roger,of,,,,,filler,,1,413,,,running,0,practice,5,
249,pilot,,,Roger,the,,,,,filler,,1,367,,,running,0,practice,6,
249,pilot,,,Roger,weather,,,,,filler,,1,383,,,running,0,practice,7,
249,pilot,,,Roger,and,,,,,filler,,1,414,,,running,0,practice,8,
249,pilot,,,Roger,go,,,,,filler,,1,350,,,running,0,practice,9,
249,pilot,,,Roger,for,,,,,filler,,1,297,,,running,0,practice,10,
249,pilot,,,Roger,a,,,,,filler,,1,354,,,running,0,practice,11,
249,pilot,,,Roger,run,,,,,filler,,1,338,,,running,0,practice,12,
249,pilot,,,Roger,today.,,,,,filler,,1,416,,,running,0,practice,13,
249,pilot,,,Roger,Unfortunately,,,,,filler,,0,492,,,shaving,0,practice,0,
249,pilot,,,Roger,he,,,,,filler,,0,408,,,shaving,0,practice,1,
249,pilot,,,Roger,was,,,,,filler,,0,302,,,shaving,0,practice,2,
249,pilot,,,Roger,out,,,,,filler,,0,371,,,shaving,0,practice,3,
249,pilot,,,Roger,of,,,,,filler,,0,301,,,shaving,0,practice,4,
249,pilot,,,Roger,shaving,,,,,filler,,0,359,,,shaving,0,practice,5,
249,pilot,,,Roger,"cream,",,,,,filler,,0,367,,,shaving,0,practice,6,
249,pilot,,,Roger,so,,,,,filler,,0,368,,,shaving,0,practice,7,
249,pilot,,,Roger,he,,,,,filler,,0,220,,,shaving,0,practice,8,
249,pilot,,,Roger,had,,,,,filler,,0,423,,,shaving,0,practice,9,
249,pilot,,,Roger,to,,,,,filler,,0,283,,,shaving,0,practice,10,
249,pilot,,,Roger,run,,,,,filler,,0,397,,,shaving,0,practice,11,
249,pilot,,,Roger,to,,,,,filler,,0,366,,,shaving,0,practice,12,
249,pilot,,,Roger,the,,,,,filler,,0,376,,,shaving,0,practice,13,
249,pilot,,,Roger,store,,,,,filler,,0,373,,,shaving,0,practice,14,
249,pilot,,,Roger,before,,,,,filler,,0,327,,,shaving,0,practice,15,
249,pilot,,,Roger,shaving.,,,,,filler,,0,712,,,shaving,0,practice,16,
249,pilot,,,Roger,This,,,,,filler,,1,831,,,computer,0,practice,0,
249,pilot,,,Roger,was,,,,,filler,,1,340,,,computer,0,practice,1,
249,pilot,,,Roger,the,,,,,filler,,1,241,,,computer,0,practice,2,
249,pilot,,,Roger,worst,,,,,filler,,1,276,,,computer,0,practice,3,
249,pilot,,,Roger,time,,,,,filler,,1,297,,,computer,0,practice,4,
249,pilot,,,Roger,for,,,,,filler,,1,268,,,computer,0,practice,5,
249,pilot,,,Roger,it,,,,,filler,,1,269,,,computer,0,practice,6,
249,pilot,,,Roger,to,,,,,filler,,1,295,,,computer,0,practice,7,
249,pilot,,,Roger,break,,,,,filler,,1,382,,,computer,0,practice,8,
249,pilot,,,Roger,"down,",,,,,filler,,1,409,,,computer,0,practice,9,
249,pilot,,,Roger,as,,,,,filler,,1,331,,,computer,0,practice,10,
249,pilot,,,Roger,James,,,,,name,,1,305,,,computer,0,practice,11,
249,pilot,,,Roger,had,,,,,filler,,1,252,,,computer,0,practice,12,
249,pilot,,,Roger,a,,,,,filler,,1,231,,,computer,0,practice,13,
249,pilot,,,Roger,lot,,,,,filler,,1,330,,,computer,0,practice,14,
249,pilot,,,Roger,of,,,,,filler,,1,262,,,computer,0,practice,15,
249,pilot,,,Roger,work,,,,,filler,,1,323,,,computer,0,practice,16,
249,pilot,,,Roger,to,,,,,filler,,1,331,,,computer,0,practice,17,
249,pilot,,,Roger,do,,,,,filler,,1,235,,,computer,0,practice,18,
249,pilot,,,Roger,the,,,,,filler,,1,196,,,computer,0,practice,19,
249,pilot,,,Roger,next,,,,,filler,,1,252,,,computer,0,practice,20,
249,pilot,,,Roger,day.,,,,,filler,,1,278,,,computer,0,practice,21,
249,pilot,,,Roger,He,,,,,filler,,1,358,,,groceries,0,practice,0,
249,pilot,,,Roger,really,,,,,filler,,1,166,,,groceries,0,practice,1,
249,pilot,,,Roger,wanted,,,,,filler,,1,180,,,groceries,0,practice,2,
249,pilot,,,Roger,to,,,,,filler,,1,324,,,groceries,0,practice,3,
249,pilot,,,Roger,pick,,,,,filler,,1,236,,,groceries,0,practice,4,
249,pilot,,,Roger,up,,,,,filler,,1,211,,,groceries,0,practice,5,
249,pilot,,,Roger,some,,,,,filler,,1,263,,,groceries,0,practice,6,
249,pilot,,,Roger,eggs,,,,,filler,,1,301,,,groceries,0,practice,7,
249,pilot,,,Roger,and,,,,,filler,,1,258,,,groceries,0,practice,8,
249,pilot,,,Roger,orange,,,,,filler,,1,313,,,groceries,0,practice,9,
249,pilot,,,Roger,juice,,,,,filler,,1,305,,,groceries,0,practice,10,
249,pilot,,,Roger,for,,,,,filler,,1,345,,,groceries,0,practice,11,
249,pilot,,,Roger,breakfast.,,,,,filler,,1,412,,,groceries,0,practice,12,
249,pilot,,none,Jamal,He,,1,1,black,filler,,1,509,,,dentist,0,filler,0,
249,pilot,,none,Jamal,remembered,,1,1,black,filler,,1,425,,,dentist,0,filler,1,
249,pilot,,none,Jamal,he,,1,1,black,filler,,1,424,,,dentist,0,filler,2,
249,pilot,,none,Jamal,had,,1,1,black,filler,,1,401,,,dentist,0,filler,3,
249,pilot,,none,Jamal,a,,1,1,black,filler,,1,280,,,dentist,0,filler,4,
249,pilot,,none,Jamal,dentist,,1,1,black,filler,,1,359,,,dentist,0,filler,5,
249,pilot,,none,Jamal,appointment,,1,1,black,filler,,1,344,,,dentist,0,filler,6,
249,pilot,,none,Jamal,"today,",,1,1,black,filler,,1,422,,,dentist,0,filler,7,
249,pilot,,none,Jamal,which,,1,1,black,filler,,1,474,,,dentist,0,filler,8,
249,pilot,,none,Jamal,he,,1,1,black,filler,,1,274,,,dentist,0,filler,9,
249,pilot,,none,Jamal,was,,1,1,black,filler,,1,345,,,dentist,0,filler,10,
249,pilot,,none,Jamal,dreading.,,1,1,black,filler,,1,697,,,dentist,0,filler,11,
249,pilot,,none,Jermaine,He,,1,1,black,filler,,1,423,,,neighbors,1,filler,0,
249,pilot,,none,Jermaine,slept,,1,1,black,filler,,1,352,,,neighbors,1,filler,1,
249,pilot,,none,Jermaine,badly,,1,1,black,filler,,1,423,,,neighbors,1,filler,2,
249,pilot,,none,Jermaine,"again,",,1,1,black,filler,,1,488,,,neighbors,1,filler,3,
249,pilot,,none,Jermaine,probably,,1,1,black,filler,,1,581,,,neighbors,1,filler,4,
249,pilot,,none,Jermaine,because,,1,1,black,filler,,1,477,,,neighbors,1,filler,5,
249,pilot,,none,Jermaine,of,,1,1,black,filler,,1,365,,,neighbors,1,filler,6,
249,pilot,,none,Jermaine,the,,1,1,black,filler,,1,321,,,neighbors,1,filler,7,
249,pilot,,none,Jermaine,noise,,1,1,black,filler,,1,350,,,neighbors,1,filler,8,
249,pilot,,none,Jermaine,that,,1,1,black,filler,,1,465,,,neighbors,1,filler,9,
249,pilot,,none,Jermaine,always,,1,1,black,filler,,1,411,,,neighbors,1,filler,10,
249,pilot,,none,Jermaine,came,,1,1,black,filler,,1,316,,,neighbors,1,filler,11,
249,pilot,,none,Jermaine,from,,1,1,black,filler,,1,341,,,neighbors,1,filler,12,
249,pilot,,none,Jermaine,his,,1,1,black,filler,,1,361,,,neighbors,1,filler,13,
249,pilot,,none,Jermaine,neighbors.,,1,1,black,filler,,1,1420,,,neighbors,1,filler,14,
249,pilot,,black,Lamar,He,,1,1,black,filler,,1,310,,,performing,2,critical,0,
249,pilot,,black,Lamar,knew,,1,1,black,filler,,1,247,,,performing,2,critical,1,
249,pilot,,black,Lamar,that,,1,1,black,filler,,1,342,,,performing,2,critical,2,
249,pilot,,black,Lamar,no,,1,1,black,filler,,1,250,,,performing,2,critical,3,
249,pilot,,black,Lamar,matter,,1,1,black,filler,,1,348,,,performing,2,critical,4,
249,pilot,,black,Lamar,how,,1,1,black,filler,,1,339,,,performing,2,critical,5,
249,pilot,,black,Lamar,many,,1,1,black,filler,,1,388,,,performing,2,critical,6,
249,pilot,,black,Lamar,times,,1,1,black,filler,,1,405,,,performing,2,critical,7,
249,pilot,,black,Lamar,he,,1,1,black,filler,,1,417,,,performing,2,critical,8,
249,pilot,,black,Lamar,got,,1,1,black,filler,,1,301,,,performing,2,critical,9,
249,pilot,,black,Lamar,on,,1,1,black,filler,,1,421,,,performing,2,critical,10,
249,pilot,,black,Lamar,"stage,",,1,1,black,filler,,1,335,,,performing,2,critical,11,
249,pilot,,black,Lamar,he,,1,1,black,filler,,1,362,,,performing,2,critical,12,
249,pilot,,black,Lamar,would,,1,1,black,filler,,1,281,,,performing,2,critical,13,
249,pilot,,black,Lamar,always,,1,1,black,filler,,1,280,,,performing,2,critical,14,
249,pilot,,black,Lamar,be,,1,1,black,filler,,1,323,,,performing,2,critical,15,
249,pilot,,black,Lamar,nervous,,1,1,black,filler,,1,320,,,performing,2,critical,16,
249,pilot,,black,Lamar,to,,1,1,black,filler,,1,286,,,performing,2,critical,17,
249,pilot,,black,Lamar,play,,1,1,black,filler,,1,285,,,performing,2,critical,18,
249,pilot,,black,Lamar,the,,1,1,black,filler,,1,283,,,performing,2,critical,19,
249,pilot,,black,Lamar,saxophone,,1,1,black,filler,,1,366,,,performing,2,critical,20,
249,pilot,,black,Lamar,in,,1,1,black,filler,,1,363,,,performing,2,critical,21,
249,pilot,,black,Lamar,front,,1,1,black,filler,,1,317,,,performing,2,critical,22,
249,pilot,,black,Lamar,of,,1,1,black,filler,,1,275,,,performing,2,critical,23,
249,pilot,,black,Lamar,an,,1,1,black,filler,,1,253,,,performing,2,critical,24,
249,pilot,,black,Lamar,audience.,,1,1,black,filler,,1,517,,,performing,2,critical,25,
249,pilot,,none,Ryan,It,,1,1,white,filler,,1,359,,,job,3,filler,0,
249,pilot,,none,Ryan,was,,1,1,white,filler,,1,240,,,job,3,filler,1,
249,pilot,,none,Ryan,going,,1,1,white,filler,,1,270,,,job,3,filler,2,
249,pilot,,none,Ryan,to,,1,1,white,filler,,1,317,,,job,3,filler,3,
249,pilot,,none,Ryan,be,,1,1,white,filler,,1,236,,,job,3,filler,4,
249,pilot,,none,Ryan,a,,1,1,white,filler,,1,268,,,job,3,filler,5,
249,pilot,,none,Ryan,long,,1,1,white,filler,,1,276,,,job,3,filler,6,
249,pilot,,none,Ryan,day,,1,1,white,filler,,1,325,,,job,3,filler,7,
249,pilot,,none,Ryan,at,,1,1,white,filler,,1,360,,,job,3,filler,8,
249,pilot,,none,Ryan,the,,1,1,white,filler,,1,272,,,job,3,filler,9,
249,pilot,,none,Ryan,office,,1,1,white,filler,,1,328,,,job,3,filler,10,
249,pilot,,none,Ryan,"tomorrow,",,1,1,white,filler,,1,350,,,job,3,filler,11,
249,pilot,,none,Ryan,and,,1,1,white,filler,,1,413,,,job,3,filler,12,
249,pilot,,none,Ryan,he,,1,1,white,filler,,1,235,,,job,3,filler,13,
249,pilot,,none,Ryan,knew,,1,1,white,filler,,1,191,,,job,3,filler,14,
249,pilot,,none,Ryan,that,,1,1,white,filler,,1,286,,,job,3,filler,15,
249,pilot,,none,Ryan,without,,1,1,white,filler,,1,346,,,job,3,filler,16,
249,pilot,,none,Ryan,eight,,1,1,white,filler,,1,268,,,job,3,filler,17,
249,pilot,,none,Ryan,hours,,1,1,white,filler,,1,465,,,job,3,filler,18,
249,pilot,,none,Ryan,of,,1,1,white,filler,,1,224,,,job,3,filler,19,
249,pilot,,none,Ryan,sleep,,1,1,white,filler,,1,240,,,job,3,filler,20,
249,pilot,,none,Ryan,he,,1,1,white,filler,,1,274,,,job,3,filler,21,
249,pilot,,none,Ryan,would,,1,1,white,filler,,1,251,,,job,3,filler,22,
249,pilot,,none,Ryan,get,,1,1,white,filler,,1,255,,,job,3,filler,23,
249,pilot,,none,Ryan,really,,1,1,white,filler,,1,259,,,job,3,filler,24,
249,pilot,,none,Ryan,tired,,1,1,white,filler,,1,280,,,job,3,filler,25,
249,pilot,,none,Ryan,on,,1,1,white,filler,,1,312,,,job,3,filler,26,
249,pilot,,none,Ryan,the,,1,1,white,filler,,1,265,,,job,3,filler,27,
249,pilot,,none,Ryan,job.,,1,1,white,filler,,1,318,,,job,3,filler,28,
249,pilot,,none,Deion,&quot;Sarah!,,1,1,black,filler,,1,440,,,sister,4,filler,0,
249,pilot,,none,Deion,I&rsquo;m,,1,1,black,filler,,1,428,,,sister,4,filler,1,
249,pilot,,none,Deion,sorry,,1,1,black,filler,,1,235,,,sister,4,filler,2,
249,pilot,,none,Deion,for,,1,1,black,filler,,1,252,,,sister,4,filler,3,
249,pilot,,none,Deion,missing,,1,1,black,filler,,1,206,,,sister,4,filler,4,
249,pilot,,none,Deion,your,,1,1,black,filler,,1,218,,,sister,4,filler,5,
249,pilot,,none,Deion,messages!&quot;,,1,1,black,filler,,1,228,,,sister,4,filler,6,
249,pilot,,none,Deion,he,,1,1,black,filler,,1,414,,,sister,4,filler,7,
249,pilot,,none,Deion,"said,",,1,1,black,filler,,1,238,,,sister,4,filler,8,
249,pilot,,none,Deion,genuinely,,1,1,black,filler,,1,217,,,sister,4,filler,9,
249,pilot,,none,Deion,feeling,,1,1,black,filler,,1,349,,,sister,4,filler,10,
249,pilot,,none,Deion,bad.,,1,1,black,filler,,1,348,,,sister,4,filler,11,
249,pilot,,none,Rasheed,&quot;Wow&quot;,,1,1,black,filler,,1,384,,,friend,5,filler,0,
249,pilot,,none,Rasheed,he,,1,1,black,filler,,1,351,,,friend,5,filler,1,
249,pilot,,none,Rasheed,"said,",,1,1,black,filler,,1,206,,,friend,5,filler,2,
249,pilot,,none,Rasheed,unable,,1,1,black,filler,,1,227,,,friend,5,filler,3,
249,pilot,,none,Rasheed,to,,1,1,black,filler,,1,223,,,friend,5,filler,4,
249,pilot,,none,Rasheed,believe,,1,1,black,filler,,1,190,,,friend,5,filler,5,
249,pilot,,none,Rasheed,it,,1,1,black,filler,,1,185,,,friend,5,filler,6,
249,pilot,,none,Rasheed,had,,1,1,black,filler,,1,256,,,friend,5,filler,7,
249,pilot,,none,Rasheed,been,,1,1,black,filler,,1,206,,,friend,5,filler,8,
249,pilot,,none,Rasheed,so,,1,1,black,filler,,1,222,,,friend,5,filler,9,
249,pilot,,none,Rasheed,long,,1,1,black,filler,,1,226,,,friend,5,filler,10,
249,pilot,,none,Rasheed,since,,1,1,black,filler,,1,207,,,friend,5,filler,11,
249,pilot,,none,Rasheed,he,,1,1,black,filler,,1,186,,,friend,5,filler,12,
249,pilot,,none,Rasheed,last,,1,1,black,filler,,1,181,,,friend,5,filler,13,
249,pilot,,none,Rasheed,talked,,1,1,black,filler,,1,173,,,friend,5,filler,14,
249,pilot,,none,Rasheed,to,,1,1,black,filler,,1,348,,,friend,5,filler,15,
249,pilot,,none,Rasheed,his,,1,1,black,filler,,1,354,,,friend,5,filler,16,
249,pilot,,none,Rasheed,friend.,,1,1,black,filler,,1,1278,,,friend,5,filler,17,
249,pilot,,black,Brett,He,,1,1,white,filler,,1,368,,,lazy day,6,critical,0,
249,pilot,,black,Brett,was,,1,1,white,filler,,1,239,,,lazy day,6,critical,1,
249,pilot,,black,Brett,looking,,1,1,white,filler,,1,184,,,lazy day,6,critical,2,
249,pilot,,black,Brett,forward,,1,1,white,filler,,1,190,,,lazy day,6,critical,3,
249,pilot,,black,Brett,to,,1,1,white,filler,,1,194,,,lazy day,6,critical,4,
249,pilot,,black,Brett,having,,1,1,white,filler,,1,188,,,lazy day,6,critical,5,
249,pilot,,black,Brett,the,,1,1,white,filler,,1,162,,,lazy day,6,critical,6,
249,pilot,,black,Brett,time,,1,1,white,filler,,1,169,,,lazy day,6,critical,7,
249,pilot,,black,Brett,to,,1,1,white,filler,,1,182,,,lazy day,6,critical,8,
249,pilot,,black,Brett,rest,,1,1,white,filler,,1,188,,,lazy day,6,critical,9,
249,pilot,,black,Brett,a,,1,1,white,filler,,1,187,,,lazy day,6,critical,10,
249,pilot,,black,Brett,lot,,1,1,white,filler,,1,179,,,lazy day,6,critical,11,
249,pilot,,black,Brett,"today,",,1,1,white,filler,,1,180,,,lazy day,6,critical,12,
249,pilot,,black,Brett,which,,1,1,white,filler,,1,229,,,lazy day,6,critical,13,
249,pilot,,black,Brett,he,,1,1,white,filler,,1,290,,,lazy day,6,critical,14,
249,pilot,,black,Brett,hadn't,,1,1,white,filler,,1,187,,,lazy day,6,critical,15,
249,pilot,,black,Brett,had,,1,1,white,filler,,1,244,,,lazy day,6,critical,16,
249,pilot,,black,Brett,the,,1,1,white,filler,,1,224,,,lazy day,6,critical,17,
249,pilot,,black,Brett,time,,1,1,white,filler,,1,212,,,lazy day,6,critical,18,
249,pilot,,black,Brett,to,,1,1,white,filler,,1,241,,,lazy day,6,critical,19,
249,pilot,,black,Brett,in,,1,1,white,filler,,1,242,,,lazy day,6,critical,20,
249,pilot,,black,Brett,a,,1,1,white,filler,,1,284,,,lazy day,6,critical,21,
249,pilot,,black,Brett,while.,,1,1,white,filler,,1,357,,,lazy day,6,critical,22,
249,pilot,,white,Dylan,&quot;I,,1,1,white,filler,,1,386,,,food,7,critical,0,
249,pilot,,white,Dylan,could,,1,1,white,filler,,1,212,,,food,7,critical,1,
249,pilot,,white,Dylan,sure,,1,1,white,filler,,1,226,,,food,7,critical,2,
249,pilot,,white,Dylan,go,,1,1,white,filler,,1,225,,,food,7,critical,3,
249,pilot,,white,Dylan,for,,1,1,white,filler,,1,249,,,food,7,critical,4,
249,pilot,,white,Dylan,some,,1,1,white,filler,,1,224,,,food,7,critical,5,
249,pilot,,white,Dylan,Chinese,,1,1,white,filler,,1,219,,,food,7,critical,6,
249,pilot,,white,Dylan,right,,1,1,white,filler,,1,227,,,food,7,critical,7,
249,pilot,,white,Dylan,"now,&quot;",,1,1,white,filler,,1,297,,,food,7,critical,8,
249,pilot,,white,Dylan,he,,1,1,white,filler,,1,315,,,food,7,critical,9,
249,pilot,,white,Dylan,thought.,,1,1,white,filler,,1,406,,,food,7,critical,10,
249,pilot,,none,Brad,He,,1,1,white,filler,,1,382,,,driving,8,filler,0,
249,pilot,,none,Brad,did,,1,1,white,filler,,1,204,,,driving,8,filler,1,
249,pilot,,none,Brad,not,,1,1,white,filler,,1,190,,,driving,8,filler,2,
249,pilot,,none,Brad,expect,,1,1,white,filler,,1,165,,,driving,8,filler,3,
249,pilot,,none,Brad,to,,1,1,white,filler,,1,162,,,driving,8,filler,4,
249,pilot,,none,Brad,see,,1,1,white,filler,,1,178,,,driving,8,filler,5,
249,pilot,,none,Brad,a,,1,1,white,filler,,1,173,,,driving,8,filler,6,
249,pilot,,none,Brad,deer,,1,1,white,filler,,1,160,,,driving,8,filler,7,
249,pilot,,none,Brad,run,,1,1,white,filler,,1,286,,,driving,8,filler,8,
249,pilot,,none,Brad,across,,1,1,white,filler,,1,278,,,driving,8,filler,9,
249,pilot,,none,Brad,the,,1,1,white,filler,,1,258,,,driving,8,filler,10,
249,pilot,,none,Brad,road,,1,1,white,filler,,1,268,,,driving,8,filler,11,
249,pilot,,none,Brad,in,,1,1,white,filler,,1,220,,,driving,8,filler,12,
249,pilot,,none,Brad,front,,1,1,white,filler,,1,226,,,driving,8,filler,13,
249,pilot,,none,Brad,of,,1,1,white,filler,,1,259,,,driving,8,filler,14,
249,pilot,,none,Brad,him.,,1,1,white,filler,,1,567,,,driving,8,filler,15,
249,pilot,,none,Kareem,He,,1,1,black,filler,,1,373,,,gray car,9,filler,0,
249,pilot,,none,Kareem,hopped,,1,1,black,filler,,1,436,,,gray car,9,filler,1,
249,pilot,,none,Kareem,into,,1,1,black,filler,,1,424,,,gray car,9,filler,2,
249,pilot,,none,Kareem,his,,1,1,black,filler,,1,242,,,gray car,9,filler,3,
249,pilot,,none,Kareem,"car,",,1,1,black,filler,,1,247,,,gray car,9,filler,4,
249,pilot,,none,Kareem,a,,1,1,black,filler,,1,230,,,gray car,9,filler,5,
249,pilot,,none,Kareem,gray,,1,1,black,filler,,1,242,,,gray car,9,filler,6,
249,pilot,,none,Kareem,"Honda,",,1,1,black,filler,,1,218,,,gray car,9,filler,7,
249,pilot,,none,Kareem,to,,1,1,black,filler,,1,368,,,gray car,9,filler,8,
249,pilot,,none,Kareem,go,,1,1,black,filler,,1,275,,,gray car,9,filler,9,
249,pilot,,none,Kareem,meet,,1,1,black,filler,,1,221,,,gray car,9,filler,10,
249,pilot,,none,Kareem,his,,1,1,black,filler,,1,235,,,gray car,9,filler,11,
249,pilot,,none,Kareem,friends.,,1,1,black,filler,,1,438,,,gray car,9,filler,12,
249,pilot,,none,Jack,He,,1,1,white,filler,,1,583,,,poker,10,filler,0,
249,pilot,,none,Jack,couldn&rsquo;t,,1,1,white,filler,,1,383,,,poker,10,filler,1,
249,pilot,,none,Jack,wait,,1,1,white,filler,,1,352,,,poker,10,filler,2,
249,pilot,,none,Jack,to,,1,1,white,filler,,1,303,,,poker,10,filler,3,
249,pilot,,none,Jack,beat,,1,1,white,filler,,1,272,,,poker,10,filler,4,
249,pilot,,none,Jack,them,,1,1,white,filler,,1,280,,,poker,10,filler,5,
249,pilot,,none,Jack,at,,1,1,white,filler,,1,407,,,poker,10,filler,6,
249,pilot,,none,Jack,a,,1,1,white,filler,,1,288,,,poker,10,filler,7,
249,pilot,,none,Jack,game,,1,1,white,filler,,1,383,,,poker,10,filler,8,
249,pilot,,none,Jack,of,,1,1,white,filler,,1,291,,,poker,10,filler,9,
249,pilot,,none,Jack,poker,,1,1,white,filler,,1,313,,,poker,10,filler,10,
249,pilot,,none,Jack,again.,,1,1,white,filler,,1,313,,,poker,10,filler,11,
249,pilot,,white,Deandre,He,,1,1,black,filler,,1,381,,,lesson,11,critical,0,
249,pilot,,white,Deandre,rushed,,1,1,black,filler,,1,217,,,lesson,11,critical,1,
249,pilot,,white,Deandre,out,,1,1,black,filler,,1,248,,,lesson,11,critical,2,
249,pilot,,white,Deandre,the,,1,1,black,filler,,1,242,,,lesson,11,critical,3,
249,pilot,,white,Deandre,door,,1,1,black,filler,,1,238,,,lesson,11,critical,4,
249,pilot,,white,Deandre,to,,1,1,black,filler,,1,241,,,lesson,11,critical,5,
249,pilot,,white,Deandre,go,,1,1,black,filler,,1,228,,,lesson,11,critical,6,
249,pilot,,white,Deandre,pick,,1,1,black,filler,,1,226,,,lesson,11,critical,7,
249,pilot,,white,Deandre,up,,1,1,black,filler,,1,183,,,lesson,11,critical,8,
249,pilot,,white,Deandre,his,,1,1,black,filler,,1,206,,,lesson,11,critical,9,
249,pilot,,white,Deandre,little,,1,1,black,filler,,1,224,,,lesson,11,critical,10,
249,pilot,,white,Deandre,brother,,1,1,black,filler,,1,231,,,lesson,11,critical,11,
249,pilot,,white,Deandre,from,,1,1,black,filler,,1,305,,,lesson,11,critical,12,
249,pilot,,white,Deandre,his,,1,1,black,filler,,1,273,,,lesson,11,critical,13,
249,pilot,,white,Deandre,tennis,,1,1,black,filler,,1,252,,,lesson,11,critical,14,
249,pilot,,white,Deandre,lesson.,,1,1,black,filler,,1,365,,,lesson,11,critical,15,
249,pilot,,black,Peter,He,,1,1,white,filler,,1,393,,,fancy restaurant,12,critical,0,
249,pilot,,black,Peter,had,,1,1,white,filler,,1,271,,,fancy restaurant,12,critical,1,
249,pilot,,black,Peter,made,,1,1,white,filler,,1,1317,,,fancy restaurant,12,critical,2,
249,pilot,,black,Peter,a,,1,1,white,filler,,1,287,,,fancy restaurant,12,critical,3,
249,pilot,,black,Peter,reservation,,1,1,white,filler,,1,221,,,fancy restaurant,12,critical,4,
249,pilot,,black,Peter,at,,1,1,white,filler,,1,227,,,fancy restaurant,12,critical,5,
249,pilot,,black,Peter,"Chili&rsquo;s,",,1,1,white,filler,,1,207,,,fancy restaurant,12,critical,6,
249,pilot,,black,Peter,and,,1,1,white,filler,,1,234,,,fancy restaurant,12,critical,7,
249,pilot,,black,Peter,was,,1,1,white,filler,,1,261,,,fancy restaurant,12,critical,8,
249,pilot,,black,Peter,looking,,1,1,white,filler,,1,228,,,fancy restaurant,12,critical,9,
249,pilot,,black,Peter,forward,,1,1,white,filler,,1,225,,,fancy restaurant,12,critical,10,
249,pilot,,black,Peter,to,,1,1,white,filler,,1,345,,,fancy restaurant,12,critical,11,
249,pilot,,black,Peter,taking,,1,1,white,filler,,1,211,,,fancy restaurant,12,critical,12,
249,pilot,,black,Peter,his,,1,1,white,filler,,1,304,,,fancy restaurant,12,critical,13,
249,pilot,,black,Peter,partner,,1,1,white,filler,,1,321,,,fancy restaurant,12,critical,14,
249,pilot,,black,Peter,there.,,1,1,white,filler,,1,339,,,fancy restaurant,12,critical,15,
249,pilot,,white,Hunter,To,,1,1,white,filler,,1,508,,,genre,13,critical,0,
249,pilot,,white,Hunter,really,,1,1,white,filler,,1,509,,,genre,13,critical,1,
249,pilot,,white,Hunter,relax,,1,1,white,filler,,1,932,,,genre,13,critical,2,
249,pilot,,white,Hunter,"though,",,1,1,white,filler,,1,417,,,genre,13,critical,3,
249,pilot,,white,Hunter,he,,1,1,white,filler,,1,326,,,genre,13,critical,4,
249,pilot,,white,Hunter,pulled,,1,1,white,filler,,1,172,,,genre,13,critical,5,
249,pilot,,white,Hunter,his,,1,1,white,filler,,1,215,,,genre,13,critical,6,
249,pilot,,white,Hunter,phone,,1,1,white,filler,,1,227,,,genre,13,critical,7,
249,pilot,,white,Hunter,out,,1,1,white,filler,,1,110,,,genre,13,critical,8,
249,pilot,,white,Hunter,and,,1,1,white,filler,,1,350,,,genre,13,critical,9,
249,pilot,,white,Hunter,started,,1,1,white,filler,,1,211,,,genre,13,critical,10,
249,pilot,,white,Hunter,playing,,1,1,white,filler,,1,216,,,genre,13,critical,11,
249,pilot,,white,Hunter,some,,1,1,white,filler,,1,341,,,genre,13,critical,12,
249,pilot,,white,Hunter,indie,,1,1,white,filler,,1,334,,,genre,13,critical,13,
249,pilot,,white,Hunter,"folk,",,1,1,white,filler,,1,247,,,genre,13,critical,14,
249,pilot,,white,Hunter,his,,1,1,white,filler,,1,843,,,genre,13,critical,15,
249,pilot,,white,Hunter,favorite,,1,1,white,filler,,1,391,,,genre,13,critical,16,
249,pilot,,white,Hunter,kind,,1,1,white,filler,,1,509,,,genre,13,critical,17,
249,pilot,,white,Hunter,of,,1,1,white,filler,,1,283,,,genre,13,critical,18,
249,pilot,,white,Hunter,music.,,1,1,white,filler,,1,294,,,genre,13,critical,19,
249,pilot,,none,Ian,But,,1,1,white,filler,,1,350,,,blue car,14,filler,0,
249,pilot,,none,Ian,as,,1,1,white,filler,,1,227,,,blue car,14,filler,1,
249,pilot,,none,Ian,Ian,,1,1,white,name,,1,228,,,blue car,14,filler,2,
249,pilot,,none,Ian,checked,,1,1,white,filler,,1,190,,,blue car,14,filler,3,
249,pilot,,none,Ian,"around,",,1,1,white,filler,,1,218,,,blue car,14,filler,4,
249,pilot,,none,Ian,he,,1,1,white,filler,,1,251,,,blue car,14,filler,5,
249,pilot,,none,Ian,realized,,1,1,white,filler,,1,150,,,blue car,14,filler,6,
249,pilot,,none,Ian,that,,1,1,white,filler,,1,221,,,blue car,14,filler,7,
249,pilot,,none,Ian,the,,1,1,white,filler,,1,134,,,blue car,14,filler,8,
249,pilot,,none,Ian,only,,1,1,white,filler,,1,328,,,blue car,14,filler,9,
249,pilot,,none,Ian,thing,,1,1,white,filler,,1,174,,,blue car,14,filler,10,
249,pilot,,none,Ian,missing,,1,1,white,filler,,1,267,,,blue car,14,filler,11,
249,pilot,,none,Ian,was,,1,1,white,filler,,1,438,,,blue car,14,filler,12,
249,pilot,,none,Ian,the,,1,1,white,filler,,1,272,,,blue car,14,filler,13,
249,pilot,,none,Ian,keys,,1,1,white,filler,,1,272,,,blue car,14,filler,14,
249,pilot,,none,Ian,to,,1,1,white,filler,,1,302,,,blue car,14,filler,15,
249,pilot,,none,Ian,his,,1,1,white,filler,,1,239,,,blue car,14,filler,16,
249,pilot,,none,Ian,"car,",,1,1,white,filler,,1,222,,,blue car,14,filler,17,
249,pilot,,none,Ian,which,,1,1,white,filler,,1,396,,,blue car,14,filler,18,
249,pilot,,none,Ian,was,,1,1,white,filler,,1,215,,,blue car,14,filler,19,
249,pilot,,none,Ian,a,,1,1,white,filler,,1,206,,,blue car,14,filler,20,
249,pilot,,none,Ian,blue,,1,1,white,filler,,1,285,,,blue car,14,filler,21,
249,pilot,,none,Ian,Toyota.,,1,1,white,filler,,1,305,,,blue car,14,filler,22,
249,pilot,,white,Trevon,He,,1,1,black,filler,,1,419,,,test,15,critical,0,
249,pilot,,white,Trevon,hoped,,1,1,black,filler,,1,295,,,test,15,critical,1,
249,pilot,,white,Trevon,it,,1,1,black,filler,,1,216,,,test,15,critical,2,
249,pilot,,white,Trevon,wouldn&rsquo;t,,1,1,black,filler,,1,211,,,test,15,critical,3,
249,pilot,,white,Trevon,turn,,1,1,black,filler,,1,196,,,test,15,critical,4,
249,pilot,,white,Trevon,out,,1,1,black,filler,,1,190,,,test,15,critical,5,
249,pilot,,white,Trevon,like,,1,1,black,filler,,1,203,,,test,15,critical,6,
249,pilot,,white,Trevon,his,,1,1,black,filler,,1,320,,,test,15,critical,7,
249,pilot,,white,Trevon,worst,,1,1,black,filler,,1,217,,,test,15,critical,8,
249,pilot,,white,Trevon,math,,1,1,black,filler,,1,225,,,test,15,critical,9,
249,pilot,,white,Trevon,test,,1,1,black,filler,,1,225,,,test,15,critical,10,
249,pilot,,white,Trevon,from,,1,1,black,filler,,1,374,,,test,15,critical,11,
249,pilot,,white,Trevon,high,,1,1,black,filler,,1,234,,,test,15,critical,12,
249,pilot,,white,Trevon,school,,1,1,black,filler,,1,223,,,test,15,critical,13,
249,pilot,,white,Trevon,that,,1,1,black,filler,,1,325,,,test,15,critical,14,
249,pilot,,white,Trevon,he,,1,1,black,filler,,1,226,,,test,15,critical,15,
249,pilot,,white,Trevon,got,,1,1,black,filler,,1,245,,,test,15,critical,16,
249,pilot,,white,Trevon,a,,1,1,black,filler,,1,244,,,test,15,critical,17,
249,pilot,,white,Trevon,60,,1,1,black,filler,,1,254,,,test,15,critical,18,
249,pilot,,white,Trevon,percent,,1,1,black,filler,,1,429,,,test,15,critical,19,
249,pilot,,white,Trevon,on.,,1,1,black,filler,,1,361,,,test,15,critical,20,
249,pilot,,black,Marquis,He,,1,1,black,filler,,1,291,,,park,16,critical,0,
249,pilot,,black,Marquis,remembered,,1,1,black,filler,,1,262,,,park,16,critical,1,
249,pilot,,black,Marquis,going,,1,1,black,filler,,1,182,,,park,16,critical,2,
249,pilot,,black,Marquis,to,,1,1,black,filler,,1,212,,,park,16,critical,3,
249,pilot,,black,Marquis,that,,1,1,black,filler,,1,222,,,park,16,critical,4,
249,pilot,,black,Marquis,same,,1,1,black,filler,,1,193,,,park,16,critical,5,
249,pilot,,black,Marquis,park,,1,1,black,filler,,1,185,,,park,16,critical,6,
249,pilot,,black,Marquis,as,,1,1,black,filler,,1,190,,,park,16,critical,7,
249,pilot,,black,Marquis,a,,1,1,black,filler,,1,203,,,park,16,critical,8,
249,pilot,,black,Marquis,kid,,1,1,black,filler,,1,205,,,park,16,critical,9,
249,pilot,,black,Marquis,after,,1,1,black,filler,,1,188,,,park,16,critical,10,
249,pilot,,black,Marquis,school,,1,1,black,filler,,1,193,,,park,16,critical,11,
249,pilot,,black,Marquis,and,,1,1,black,filler,,1,225,,,park,16,critical,12,
249,pilot,,black,Marquis,shooting,,1,1,black,filler,,1,203,,,park,16,critical,13,
249,pilot,,black,Marquis,hoops,,1,1,black,filler,,1,182,,,park,16,critical,14,
249,pilot,,black,Marquis,with,,1,1,black,filler,,1,299,,,park,16,critical,15,
249,pilot,,black,Marquis,his,,1,1,black,filler,,1,233,,,park,16,critical,16,
249,pilot,,black,Marquis,friends.,,1,1,black,filler,,1,218,,,park,16,critical,17,
249,pilot,,none,Roger,&quot;Hopefully,,1,1,white,filler,,1,345,,,debate,17,filler,0,
249,pilot,,none,Roger,my,,1,1,white,filler,,1,229,,,debate,17,filler,1,
249,pilot,,none,Roger,experience,,1,1,white,filler,,1,192,,,debate,17,filler,2,
249,pilot,,none,Roger,on,,1,1,white,filler,,1,186,,,debate,17,filler,3,
249,pilot,,none,Roger,the,,1,1,white,filler,,1,186,,,debate,17,filler,4,
249,pilot,,none,Roger,debate,,1,1,white,filler,,1,177,,,debate,17,filler,5,
249,pilot,,none,Roger,team,,1,1,white,filler,,1,171,,,debate,17,filler,6,
249,pilot,,none,Roger,in,,1,1,white,filler,,1,156,,,debate,17,filler,7,
249,pilot,,none,Roger,high,,1,1,white,filler,,1,173,,,debate,17,filler,8,
249,pilot,,none,Roger,school,,1,1,white,filler,,1,187,,,debate,17,filler,9,
249,pilot,,none,Roger,will,,1,1,white,filler,,1,131,,,debate,17,filler,10,
249,pilot,,none,Roger,"help,&quot;",,1,1,white,filler,,1,215,,,debate,17,filler,11,
249,pilot,,none,Roger,Roger,,1,1,white,name,,1,230,,,debate,17,filler,12,
249,pilot,,none,Roger,thought.,,1,1,white,filler,,1,420,,,debate,17,filler,13,
250,pilot,,,,,Sarah,,,,,"[0, 'Sarah']",,,1,bot_check,,,,,
250,pilot,,,Dylan,This,,,,,filler,,1,739,,,computer,0,practice,0,
250,pilot,,,Dylan,was,,,,,filler,,1,633,,,computer,0,practice,1,
250,pilot,,,Dylan,the,,,,,filler,,1,519,,,computer,0,practice,2,
250,pilot,,,Dylan,worst,,,,,filler,,1,446,,,computer,0,practice,3,
250,pilot,,,Dylan,time,,,,,filler,,1,336,,,computer,0,practice,4,
250,pilot,,,Dylan,for,,,,,filler,,1,350,,,computer,0,practice,5,
250,pilot,,,Dylan,it,,,,,filler,,1,587,,,computer,0,practice,6,
250,pilot,,,Dylan,to,,,,,filler,,1,297,,,computer,0,practice,7,
250,pilot,,,Dylan,break,,,,,filler,,1,218,,,computer,0,practice,8,
250,pilot,,,Dylan,"down,",,,,,filler,,1,201,,,computer,0,practice,9,
250,pilot,,,Dylan,as,,,,,filler,,1,215,,,computer,0,practice,10,
250,pilot,,,Dylan,Alex,,,,,name,,1,297,,,computer,0,practice,11,
250,pilot,,,Dylan,had,,,,,filler,,1,356,,,computer,0,practice,12,
250,pilot,,,Dylan,a,,,,,filler,,1,288,,,computer,0,practice,13,
250,pilot,,,Dylan,lot,,,,,filler,,1,305,,,computer,0,practice,14,
250,pilot,,,Dylan,of,,,,,filler,,1,301,,,computer,0,practice,15,
250,pilot,,,Dylan,work,,,,,filler,,1,335,,,computer,0,practice,16,
250,pilot,,,Dylan,to,,,,,filler,,1,349,,,computer,0,practice,17,
250,pilot,,,Dylan,do,,,,,filler,,1,398,,,computer,0,practice,18,
250,pilot,,,Dylan,the,,,,,filler,,1,212,,,computer,0,practice,19,
250,pilot,,,Dylan,next,,,,,filler,,1,568,,,computer,0,practice,20,
250,pilot,,,Dylan,day.,,,,,filler,,1,1719,,,computer,0,practice,21,
250,pilot,,,Dylan,He,,,,,filler,,1,239,,,running,0,practice,0,
250,pilot,,,Dylan,decided,,,,,filler,,1,240,,,running,0,practice,1,
250,pilot,,,Dylan,to,,,,,filler,,1,449,,,running,0,practice,2,
250,pilot,,,Dylan,take,,,,,filler,,1,248,,,running,0,practice,3,
250,pilot,,,Dylan,advantage,,,,,filler,,1,215,,,running,0,practice,4,
250,pilot,,,Dylan,of,,,,,filler,,1,203,,,running,0,practice,5,
250,pilot,,,Dylan,the,,,,,filler,,1,219,,,running,0,practice,6,
250,pilot,,,Dylan,weather,,,,,filler,,1,229,,,running,0,practice,7,
250,pilot,,,Dylan,and,,,,,filler,,1,346,,,running,0,practice,8,
250,pilot,,,Dylan,go,,,,,filler,,1,214,,,running,0,practice,9,
250,pilot,,,Dylan,for,,,,,filler,,1,194,,,running,0,practice,10,
250,pilot,,,Dylan,a,,,,,filler,,1,231,,,running,0,practice,11,
250,pilot,,,Dylan,run,,,,,filler,,1,299,,,running,0,practice,12,
250,pilot,,,Dylan,today.,,,,,filler,,1,415,,,running,0,practice,13,
250,pilot,,,Dylan,Unfortunately,,,,,filler,,1,279,,,shaving,0,practice,0,
250,pilot,,,Dylan,he,,,,,filler,,1,284,,,shaving,0,practice,1,
250,pilot,,,Dylan,was,,,,,filler,,1,274,,,shaving,0,practice,2,
250,pilot,,,Dylan,out,,,,,filler,,1,252,,,shaving,0,practice,3,
250,pilot,,,Dylan,of,,,,,filler,,1,247,,,shaving,0,practice,4,
250,pilot,,,Dylan,shaving,,,,,filler,,1,241,,,shaving,0,practice,5,
250,pilot,,,Dylan,"cream,",,,,,filler,,1,251,,,shaving,0,practice,6,
250,pilot,,,Dylan,so,,,,,filler,,1,210,,,shaving,0,practice,7,
250,pilot,,,Dylan,he,,,,,filler,,1,209,,,shaving,0,practice,8,
250,pilot,,,Dylan,had,,,,,filler,,1,221,,,shaving,0,practice,9,
250,pilot,,,Dylan,to,,,,,filler,,1,195,,,shaving,0,practice,10,
250,pilot,,,Dylan,run,,,,,filler,,1,194,,,shaving,0,practice,11,
250,pilot,,,Dylan,to,,,,,filler,,1,225,,,shaving,0,practice,12,
250,pilot,,,Dylan,the,,,,,filler,,1,215,,,shaving,0,practice,13,
250,pilot,,,Dylan,store,,,,,filler,,1,207,,,shaving,0,practice,14,
250,pilot,,,Dylan,before,,,,,filler,,1,338,,,shaving,0,practice,15,
250,pilot,,,Dylan,shaving.,,,,,filler,,1,436,,,shaving,0,practice,16,
250,pilot,,,Dylan,He,,,,,filler,,1,266,,,groceries,0,practice,0,
250,pilot,,,Dylan,really,,,,,filler,,1,263,,,groceries,0,practice,1,
250,pilot,,,Dylan,wanted,,,,,filler,,1,248,,,groceries,0,practice,2,
250,pilot,,,Dylan,to,,,,,filler,,1,265,,,groceries,0,practice,3,
250,pilot,,,Dylan,pick,,,,,filler,,1,334,,,groceries,0,practice,4,
250,pilot,,,Dylan,up,,,,,filler,,1,293,,,groceries,0,practice,5,
250,pilot,,,Dylan,some,,,,,filler,,1,281,,,groceries,0,practice,6,
250,pilot,,,Dylan,eggs,,,,,filler,,1,281,,,groceries,0,practice,7,
250,pilot,,,Dylan,and,,,,,filler,,1,334,,,groceries,0,practice,8,
250,pilot,,,Dylan,orange,,,,,filler,,1,269,,,groceries,0,practice,9,
250,pilot,,,Dylan,juice,,,,,filler,,1,303,,,groceries,0,practice,10,
250,pilot,,,Dylan,for,,,,,filler,,1,389,,,groceries,0,practice,11,
250,pilot,,,Dylan,breakfast.,,,,,filler,,1,1329,,,groceries,0,practice,12,
250,pilot,,none,Rasheed,&quot;Hopefully,,1,1,black,filler,,1,361,,,debate,0,filler,0,
250,pilot,,none,Rasheed,my,,1,1,black,filler,,1,304,,,debate,0,filler,1,
250,pilot,,none,Rasheed,experience,,1,1,black,filler,,1,295,,,debate,0,filler,2,
250,pilot,,none,Rasheed,on,,1,1,black,filler,,1,309,,,debate,0,filler,3,
250,pilot,,none,Rasheed,the,,1,1,black,filler,,1,340,,,debate,0,filler,4,
250,pilot,,none,Rasheed,debate,,1,1,black,filler,,1,311,,,debate,0,filler,5,
250,pilot,,none,Rasheed,team,,1,1,black,filler,,1,355,,,debate,0,filler,6,
250,pilot,,none,Rasheed,in,,1,1,black,filler,,1,286,,,debate,0,filler,7,
250,pilot,,none,Rasheed,high,,1,1,black,filler,,1,245,,,debate,0,filler,8,
250,pilot,,none,Rasheed,school,,1,1,black,filler,,1,636,,,debate,0,filler,9,
250,pilot,,none,Rasheed,will,,1,1,black,filler,,1,227,,,debate,0,filler,10,
250,pilot,,none,Rasheed,"help,&quot;",,1,1,black,filler,,1,215,,,debate,0,filler,11,
250,pilot,,none,Rasheed,Rasheed,,1,1,black,name,,1,355,,,debate,0,filler,12,
250,pilot,,none,Rasheed,thought.,,1,1,black,filler,,1,932,,,debate,0,filler,13,
250,pilot,,black,Peter,He,,1,1,white,filler,,1,364,,,fancy restaurant,1,critical,0,
250,pilot,,black,Peter,had,,1,1,white,filler,,1,294,,,fancy restaurant,1,critical,1,
250,pilot,,black,Peter,made,,1,1,white,filler,,1,239,,,fancy restaurant,1,critical,2,
250,pilot,,black,Peter,a,,1,1,white,filler,,1,306,,,fancy restaurant,1,critical,3,
250,pilot,,black,Peter,reservation,,1,1,white,filler,,1,301,,,fancy restaurant,1,critical,4,
250,pilot,,black,Peter,at,,1,1,white,filler,,1,272,,,fancy restaurant,1,critical,5,
250,pilot,,black,Peter,"Chili&rsquo;s,",,1,1,white,filler,,1,309,,,fancy restaurant,1,critical,6,
250,pilot,,black,Peter,and,,1,1,white,filler,,1,319,,,fancy restaurant,1,critical,7,
250,pilot,,black,Peter,was,,1,1,white,filler,,1,361,,,fancy restaurant,1,critical,8,
250,pilot,,black,Peter,looking,,1,1,white,filler,,1,445,,,fancy restaurant,1,critical,9,
250,pilot,,black,Peter,forward,,1,1,white,filler,,1,280,,,fancy restaurant,1,critical,10,
250,pilot,,black,Peter,to,,1,1,white,filler,,1,248,,,fancy restaurant,1,critical,11,
250,pilot,,black,Peter,taking,,1,1,white,filler,,1,282,,,fancy restaurant,1,critical,12,
250,pilot,,black,Peter,his,,1,1,white,filler,,1,314,,,fancy restaurant,1,critical,13,
250,pilot,,black,Peter,partner,,1,1,white,filler,,1,294,,,fancy restaurant,1,critical,14,
250,pilot,,black,Peter,there.,,1,1,white,filler,,1,299,,,fancy restaurant,1,critical,15,
250,pilot,,white,Logan,He,,1,1,white,filler,,1,411,,,lesson,2,critical,0,
250,pilot,,white,Logan,rushed,,1,1,white,filler,,1,272,,,lesson,2,critical,1,
250,pilot,,white,Logan,out,,1,1,white,filler,,1,289,,,lesson,2,critical,2,
250,pilot,,white,Logan,the,,1,1,white,filler,,1,280,,,lesson,2,critical,3,
250,pilot,,white,Logan,door,,1,1,white,filler,,1,309,,,lesson,2,critical,4,
250,pilot,,white,Logan,to,,1,1,white,filler,,1,276,,,lesson,2,critical,5,
250,pilot,,white,Logan,go,,1,1,white,filler,,1,272,,,lesson,2,critical,6,
250,pilot,,white,Logan,pick,,1,1,white,filler,,1,268,,,lesson,2,critical,7,
250,pilot,,white,Logan,up,,1,1,white,filler,,1,275,,,lesson,2,critical,8,
250,pilot,,white,Logan,his,,1,1,white,filler,,1,292,,,lesson,2,critical,9,
250,pilot,,white,Logan,little,,1,1,white,filler,,1,270,,,lesson,2,critical,10,
250,pilot,,white,Logan,brother,,1,1,white,filler,,1,250,,,lesson,2,critical,11,
250,pilot,,white,Logan,from,,1,1,white,filler,,1,275,,,lesson,2,critical,12,
250,pilot,,white,Logan,his,,1,1,white,filler,,1,267,,,lesson,2,critical,13,
250,pilot,,white,Logan,tennis,,1,1,white,filler,,1,419,,,lesson,2,critical,14,
250,pilot,,white,Logan,lesson.,,1,1,white,filler,,1,813,,,lesson,2,critical,15,
250,pilot,,none,Tyree,He,,1,1,black,filler,,1,387,,,poker,3,filler,0,
250,pilot,,none,Tyree,couldn&rsquo;t,,1,1,black,filler,,1,264,,,poker,3,filler,1,
250,pilot,,none,Tyree,wait,,1,1,black,filler,,1,256,,,poker,3,filler,2,
250,pilot,,none,Tyree,to,,1,1,black,filler,,1,254,,,poker,3,filler,3,
250,pilot,,none,Tyree,beat,,1,1,black,filler,,1,212,,,poker,3,filler,4,
250,pilot,,none,Tyree,them,,1,1,black,filler,,1,228,,,poker,3,filler,5,
250,pilot,,none,Tyree,at,,1,1,black,filler,,1,276,,,poker,3,filler,6,
250,pilot,,none,Tyree,a,,1,1,black,filler,,1,178,,,poker,3,filler,7,
250,pilot,,none,Tyree,game,,1,1,black,filler,,1,395,,,poker,3,filler,8,
250,pilot,,none,Tyree,of,,1,1,black,filler,,1,228,,,poker,3,filler,9,
250,pilot,,none,Tyree,poker,,1,1,black,filler,,1,294,,,poker,3,filler,10,
250,pilot,,none,Tyree,again.,,1,1,black,filler,,1,389,,,poker,3,filler,11,
250,pilot,,black,Marquis,He,,1,1,black,filler,,1,438,,,lazy day,4,critical,0,
250,pilot,,black,Marquis,was,,1,1,black,filler,,1,273,,,lazy day,4,critical,1,
250,pilot,,black,Marquis,looking,,1,1,black,filler,,1,228,,,lazy day,4,critical,2,
250,pilot,,black,Marquis,forward,,1,1,black,filler,,1,241,,,lazy day,4,critical,3,
250,pilot,,black,Marquis,to,,1,1,black,filler,,1,285,,,lazy day,4,critical,4,
250,pilot,,black,Marquis,having,,1,1,black,filler,,1,277,,,lazy day,4,critical,5,
250,pilot,,black,Marquis,the,,1,1,black,filler,,1,279,,,lazy day,4,critical,6,
250,pilot,,black,Marquis,time,,1,1,black,filler,,1,273,,,lazy day,4,critical,7,
250,pilot,,black,Marquis,to,,1,1,black,filler,,1,293,,,lazy day,4,critical,8,
250,pilot,,black,Marquis,rest,,1,1,black,filler,,1,296,,,lazy day,4,critical,9,
250,pilot,,black,Marquis,a,,1,1,black,filler,,1,267,,,lazy day,4,critical,10,
250,pilot,,black,Marquis,lot,,1,1,black,filler,,1,497,,,lazy day,4,critical,11,
250,pilot,,black,Marquis,"today,",,1,1,black,filler,,1,214,,,lazy day,4,critical,12,
250,pilot,,black,Marquis,which,,1,1,black,filler,,1,216,,,lazy day,4,critical,13,
250,pilot,,black,Marquis,he,,1,1,black,filler,,1,332,,,lazy day,4,critical,14,
250,pilot,,black,Marquis,hadn't,,1,1,black,filler,,1,403,,,lazy day,4,critical,15,
250,pilot,,black,Marquis,had,,1,1,black,filler,,1,290,,,lazy day,4,critical,16,
250,pilot,,black,Marquis,the,,1,1,black,filler,,1,189,,,lazy day,4,critical,17,
250,pilot,,black,Marquis,time,,1,1,black,filler,,1,207,,,lazy day,4,critical,18,
250,pilot,,black,Marquis,to,,1,1,black,filler,,1,289,,,lazy day,4,critical,19,
250,pilot,,black,Marquis,in,,1,1,black,filler,,1,297,,,lazy day,4,critical,20,
250,pilot,,black,Marquis,a,,1,1,black,filler,,1,672,,,lazy day,4,critical,21,
250,pilot,,black,Marquis,while.,,1,1,black,filler,,1,733,,,lazy day,4,critical,22,
250,pilot,,none,Hunter,But,,1,1,white,filler,,1,432,,,blue car,5,filler,0,
250,pilot,,none,Hunter,as,,1,1,white,filler,,1,1565,,,blue car,5,filler,1,
250,pilot,,none,Hunter,Hunter,,1,1,white,name,,1,332,,,blue car,5,filler,2,
250,pilot,,none,Hunter,checked,,1,1,white,filler,,1,332,,,blue car,5,filler,3,
250,pilot,,none,Hunter,"around,",,1,1,white,filler,,1,316,,,blue car,5,filler,4,
250,pilot,,none,Hunter,he,,1,1,white,filler,,1,2981,,,blue car,5,filler,5,
250,pilot,,none,Hunter,realized,,1,1,white,filler,,1,441,,,blue car,5,filler,6,
250,pilot,,none,Hunter,that,,1,1,white,filler,,1,324,,,blue car,5,filler,7,
250,pilot,,none,Hunter,the,,1,1,white,filler,,1,266,,,blue car,5,filler,8,
250,pilot,,none,Hunter,only,,1,1,white,filler,,1,261,,,blue car,5,filler,9,
250,pilot,,none,Hunter,thing,,1,1,white,filler,,1,253,,,blue car,5,filler,10,
250,pilot,,none,Hunter,missing,,1,1,white,filler,,1,223,,,blue car,5,filler,11,
250,pilot,,none,Hunter,was,,1,1,white,filler,,1,248,,,blue car,5,filler,12,
250,pilot,,none,Hunter,the,,1,1,white,filler,,1,295,,,blue car,5,filler,13,
250,pilot,,none,Hunter,keys,,1,1,white,filler,,1,279,,,blue car,5,filler,14,
250,pilot,,none,Hunter,to,,1,1,white,filler,,1,221,,,blue car,5,filler,15,
250,pilot,,none,Hunter,his,,1,1,white,filler,,1,232,,,blue car,5,filler,16,
250,pilot,,none,Hunter,"car,",,1,1,white,filler,,1,201,,,blue car,5,filler,17,
250,pilot,,none,Hunter,which,,1,1,white,filler,,1,233,,,blue car,5,filler,18,
250,pilot,,none,Hunter,was,,1,1,white,filler,,1,277,,,blue car,5,filler,19,
250,pilot,,none,Hunter,a,,1,1,white,filler,,1,314,,,blue car,5,filler,20,
250,pilot,,none,Hunter,blue,,1,1,white,filler,,1,259,,,blue car,5,filler,21,
250,pilot,,none,Hunter,Toyota.,,1,1,white,filler,,1,500,,,blue car,5,filler,22,
250,pilot,,none,Jamal,He,,1,1,black,filler,,1,566,,,driving,6,filler,0,
250,pilot,,none,Jamal,did,,1,1,black,filler,,1,323,,,driving,6,filler,1,
